"Time (s)","Linear Acceleration x (m/s^2)","Linear Acceleration y (m/s^2)","Linear Acceleration z (m/s^2)"
2.188000800E-2,3.529071808E-3,-1.175642014E-2,-1.596689224E-2
2.987663000E-2,9.807634354E-2,-3.087091446E-2,-6.974697113E-3
3.787117300E-2,8.799803257E-2,-5.192756653E-4,-2.880764008E-2
4.586779400E-2,1.113177538E-1,8.089876175E-2,-5.145835876E-2
5.386372200E-2,7.237946987E-2,1.205716133E-1,-8.859777451E-2
6.185757400E-2,6.578207016E-3,1.476664543E-1,-9.394073486E-2
6.988434800E-2,2.674114704E-2,1.681976318E-1,-2.368068695E-2
7.788219900E-2,8.117020130E-2,1.313099861E-1,-6.498336792E-3
8.587643500E-2,5.306935310E-2,9.918785095E-2,-1.234102249E-2
9.387336400E-2,3.934884071E-2,7.695722580E-2,-3.142976761E-2
1.018662150E-1,6.631445885E-2,5.203104019E-2,-5.401182175E-2
1.098619130E-1,7.336628437E-2,1.953554153E-2,-6.263875961E-2
1.178607640E-1,5.484151840E-2,-1.495647430E-2,-6.844186783E-2
1.258835390E-1,-2.904772758E-3,-2.173042297E-2,-5.976295471E-2
1.338792360E-1,-4.889404774E-2,-3.169822693E-2,-4.391193390E-3
1.418767800E-1,-1.140761375E-1,-2.480792999E-2,7.298421860E-2
1.498702460E-1,-1.361860037E-1,-1.371812820E-2,7.478046417E-2
1.578690990E-1,-9.251332283E-2,-1.328325272E-2,3.411293030E-3
1.658635650E-1,-3.302490711E-2,3.076314926E-2,2.359104156E-2
1.738576470E-1,-6.473064423E-4,4.130601883E-2,1.841354370E-2
1.818853440E-1,1.753747463E-2,5.657958984E-2,-2.208709717E-3
1.898816580E-1,3.428065777E-2,8.647775650E-2,4.323673248E-2
1.978758170E-1,9.142184258E-2,7.151603699E-2,3.721523285E-2
2.058705910E-1,5.755972862E-2,4.835271835E-2,2.162933350E-2
2.138663660E-1,8.542764187E-2,2.646303177E-2,-3.638029099E-2
2.218623720E-1,1.965141296E-2,4.932260513E-2,2.456617355E-2
2.298571460E-1,1.037099361E-1,4.100084305E-2,1.532888412E-2
2.378850740E-1,1.112245321E-1,1.670360565E-3,-1.886558533E-2
2.458814640E-1,8.177316189E-2,-6.272315979E-3,-7.157182693E-2
2.538743930E-1,-6.606352329E-2,-2.014875412E-2,-6.790399551E-2
2.618697050E-1,-4.724001884E-2,-1.950979233E-2,1.335906982E-2
2.698657100E-1,-6.990289688E-2,-1.766347885E-2,1.175079346E-1
2.778608690E-1,-7.730340958E-2,-3.351020813E-2,1.210365295E-1
2.858583370E-1,-8.939945698E-2,-2.362728119E-2,1.686792374E-1
2.938848800E-1,-3.077971935E-2,-1.462459564E-3,2.023868561E-1
3.018792700E-1,-5.732059479E-3,3.405284882E-2,1.526293755E-1
3.098768130E-1,1.929116249E-2,6.907320023E-2,9.847688675E-2
3.178715880E-1,-2.964043617E-2,8.710527420E-2,3.019857407E-2
3.258682860E-1,-2.102816105E-2,1.074285507E-1,-1.164245605E-2
3.338626760E-1,-1.450121403E-2,1.086511612E-1,-2.473068237E-2
3.418583730E-1,1.604568958E-2,8.335161209E-2,3.048896790E-3
3.498829930E-1,-3.765833378E-2,6.285524368E-2,1.396131516E-2
3.578814610E-1,-6.538641453E-2,6.399011612E-2,1.276063919E-2
3.658753890E-1,-2.407336235E-2,-2.816343307E-2,9.999561310E-2
3.738707020E-1,-8.857965469E-2,-1.116609573E-2,1.167297363E-3
3.818670140E-1,-1.353424788E-1,9.618902206E-2,-9.456253052E-2
3.898609440E-1,-1.103492975E-1,1.272430420E-1,-7.802915573E-2
3.978578720E-1,-7.581543922E-2,1.273460388E-1,-1.854515076E-2
4.058843380E-1,-5.074429512E-2,1.207070351E-1,4.300403595E-2
4.138800350E-1,-1.540098190E-1,1.256437302E-1,-2.421808243E-2
4.218735800E-1,-1.610888243E-1,1.562185287E-1,-8.361244202E-2
4.298704310E-1,-2.002230883E-1,1.467976570E-1,-4.560232162E-2
4.378673590E-1,-1.308225393E-1,1.299371719E-1,-2.687644958E-2
4.458606720E-1,-1.145206690E-1,1.103744507E-1,-8.460712433E-2
4.538562930E-1,-9.779834747E-2,1.052660942E-1,-8.485937119E-2
4.618821450E-1,-1.719143391E-1,2.854633331E-2,-1.259541512E-1
4.698778420E-1,-9.967494011E-2,9.865474701E-2,-2.684783936E-2
4.778735390E-1,3.612506390E-2,4.956007004E-2,8.360385895E-2
4.858693140E-1,-7.557153702E-3,-1.587629318E-2,5.488109589E-2
4.938665500E-1,-8.685410023E-2,-8.977890015E-3,6.412553787E-2
5.018604010E-1,-6.766116619E-2,7.734489441E-2,-5.897998810E-3
5.098572530E-1,-1.490474939E-1,1.350336075E-1,-6.563663483E-3
5.178831820E-1,-2.760844231E-1,2.333135605E-1,5.507898331E-2
5.258809560E-1,-5.479156971E-2,2.018671036E-1,-7.710266113E-2
5.338735760E-1,-2.706527710E-3,1.039443016E-1,-1.118865013E-1
5.418702740E-1,9.767532349E-3,3.549146652E-2,-5.844116211E-2
5.498650490E-1,-4.435181618E-2,1.132011414E-3,2.864408493E-2
5.578609770E-1,-1.247574091E-1,6.734943390E-2,1.042351723E-1
5.658564440E-1,-1.568912268E-1,1.231064796E-1,1.710281372E-1
5.738831410E-1,-3.921508789E-3,1.638555527E-1,2.547640800E-1
5.818788390E-1,-3.715937138E-1,1.918869019E-1,3.221130371E-1
5.898726900E-1,-1.686185598E-1,1.923236847E-1,6.214189529E-2
5.978693110E-1,-6.870877743E-2,1.971907616E-1,2.941274643E-2
6.058650080E-1,2.652302980E-1,1.760845184E-1,-4.487991333E-2
6.138617060E-1,-3.971654177E-1,3.348660469E-1,7.638549805E-2
6.218558650E-1,-3.363472223E-1,2.326116562E-1,-7.757329941E-2
6.298847160E-1,-2.025682926E-1,2.311844826E-1,-3.224835396E-1
6.378774140E-1,-2.516839504E-1,2.468857765E-1,-3.375468254E-1
6.458761120E-1,-2.357152700E-1,3.014130592E-1,-1.422276497E-1
6.538688090E-1,-1.371566057E-1,2.670297623E-1,-1.403489113E-1
6.618641990E-1,-3.379762173E-2,2.033481598E-1,-2.337770462E-1
6.698601270E-1,3.551077843E-1,1.016292572E-1,-3.085718155E-1
6.778881330E-1,-2.306926250E-2,1.138668060E-1,-1.380386353E-1
6.858842150E-1,-5.391645432E-2,7.146072388E-2,-2.167806625E-1
6.938776820E-1,1.174330711E-1,8.242225647E-2,-2.436032295E-1
7.018728410E-1,2.051650286E-1,3.260040283E-2,-1.474337578E-1
7.098715390E-1,2.588949203E-1,9.165191650E-2,-3.782558441E-2
7.178638520E-1,1.946269274E-1,8.717679977E-2,7.125091553E-2
7.258617030E-1,1.221764088E-2,4.818916321E-3,3.569335938E-1
7.338869390E-1,-6.100833416E-2,1.069021225E-2,3.961701393E-1
7.418845600E-1,-1.725029945E-2,9.918260574E-2,2.639174461E-1
7.498774880E-1,-1.355733871E-1,1.888747215E-1,2.356915474E-1
7.578738010E-1,-2.617266178E-1,3.632559776E-1,1.199645996E-1
7.658712670E-1,-3.292568922E-1,4.377331734E-1,-1.143035889E-1
7.738629660E-1,-3.106961250E-1,4.726552963E-1,-3.092908859E-1
7.818598940E-1,-2.962297201E-1,4.688310623E-1,-3.984551430E-1
7.898549760E-1,-2.354429960E-1,4.364085197E-1,-2.380127907E-1
7.978811350E-1,-2.248471975E-1,4.077939987E-1,-2.003479004E-1
8.058778330E-1,-1.794440746E-1,4.014978409E-1,-1.602988243E-1
8.138732230E-1,-1.840653419E-1,4.061107635E-1,-2.742900848E-1
8.218709970E-1,-1.298305988E-1,3.725957870E-1,-2.440333366E-1
8.298645400E-1,-2.653735876E-1,3.785190582E-1,-2.467384338E-1
8.378593140E-1,-3.912835121E-1,3.910694122E-1,-7.128906250E-2
8.458880130E-1,-4.283182621E-1,4.266862869E-1,9.310245514E-3
8.538812490E-1,-4.622647762E-1,4.727911949E-1,-4.066753387E-2
8.618777920E-1,-4.800055027E-1,4.941477776E-1,-4.695081711E-2
8.698720280E-1,-5.730375051E-1,5.281949043E-1,-6.586027145E-2
8.778679570E-1,-5.456292629E-1,4.757194519E-1,-1.061158180E-1
8.858630390E-1,-4.203130007E-1,4.108405113E-1,-4.598045349E-2
8.938602750E-1,-2.768845558E-1,3.302788734E-1,-5.212259293E-2
9.018553570E-1,-1.693131924E-1,1.787166595E-1,-2.677989006E-1
9.098805930E-1,-1.052310467E-1,3.264999390E-2,-3.812999725E-1
9.178775220E-1,-2.797639370E-2,-1.185178757E-2,-3.901395798E-1
9.258722960E-1,7.460820675E-2,-8.849239349E-2,-3.330273628E-1
9.338674550E-1,1.920329332E-1,-1.217184067E-1,-2.041277885E-1
9.418630760E-1,2.063413858E-1,-1.648612022E-1,-2.422952652E-2
9.498585430E-1,1.436899900E-1,-1.905264854E-1,2.558588982E-1
9.578846250E-1,8.415305614E-2,-1.315836906E-1,4.035892487E-1
9.658825530E-1,-4.877579212E-2,-9.393453598E-2,4.672384262E-1
9.738772510E-1,-1.052041054E-1,-3.223133087E-2,5.305428505E-1
9.818727180E-1,-1.291310787E-1,-5.303049088E-2,4.936618805E-1
9.898684150E-1,-6.588625908E-2,-4.660844803E-2,4.337282181E-1
9.978631890E-1,-4.671490192E-2,-7.933092117E-2,3.048276901E-1
1.005861964E0,-2.338433266E-2,-3.322887421E-2,2.549810410E-1
1.013856354E0,-3.224861622E-2,1.541471481E-2,3.177623749E-1
1.021880128E0,-6.513237953E-2,-2.256870270E-2,4.909858704E-1
1.029876133E0,3.814446926E-2,-8.644104004E-3,5.785255432E-1
1.037872755E0,6.809890270E-2,-3.200292587E-2,5.833935738E-1
1.045868144E0,1.559411287E-1,-1.466150284E-1,5.064439774E-1
1.053864457E0,2.321392298E-1,-2.241883278E-1,3.418693542E-1
1.061858000E0,3.439817429E-1,-2.732267380E-1,2.611932755E-1
1.069884776E0,3.942058682E-1,-2.693042755E-1,2.758116722E-1
1.077883242E0,4.455183744E-1,-1.879816055E-1,3.300132751E-1
1.085878863E0,4.666732550E-1,-1.634211540E-1,3.041410446E-1
1.093873098E0,4.367595911E-1,-1.217455864E-1,1.889748573E-1
1.101868797E0,3.910598755E-1,-1.113829613E-1,-3.876733780E-2
1.109864186E0,4.068157673E-1,-1.623954773E-1,-2.507853508E-1
1.117860115E0,4.684351087E-1,-2.291488647E-1,-3.533406258E-1
1.125885735E0,4.786400199E-1,-3.926763535E-1,-1.717944145E-1
1.133880203E0,4.481672645E-1,-5.113706589E-1,2.958145142E-1
1.141370361E0,5.551446080E-1,-5.718264580E-1,8.054351807E-1
1.149872751E0,6.263488531E-1,-5.726170540E-1,9.294290543E-1
1.157867294E0,7.655943036E-1,-6.453566551E-1,9.709696770E-1
1.165862377E0,9.440417290E-1,-8.044066429E-1,8.544821739E-1
1.173858075E0,6.040624976E-1,-7.232875824E-1,5.311198235E-1
1.181883849E0,2.612706423E-1,-4.765357971E-1,2.864046097E-1
1.189880162E0,5.083030462E-2,-2.494611740E-1,1.097154617E-2
1.197876475E0,3.410911560E-2,-1.632599831E-1,-1.706390381E-1
1.205872250E0,3.571188450E-2,-2.773051262E-1,-2.431979179E-1
1.213866101E0,3.065718412E-1,-4.023981094E-1,-1.020627022E-1
1.221863875E0,4.935967028E-1,-4.234333038E-1,8.377790451E-2
1.229856881E0,5.645606518E-1,-3.834042549E-1,2.015919685E-1
1.237886732E0,5.692957640E-1,-3.305454254E-1,2.372112274E-1
1.245880507E0,4.700953066E-1,-2.780141830E-1,1.412739754E-1
1.253875050E0,4.084919095E-1,-2.380371094E-1,4.974365234E-3
1.261870671E0,3.416410089E-1,-2.462530136E-1,-1.263632774E-1
1.269865830E0,1.863807440E-1,-2.374825478E-1,-2.410664558E-1
1.277863912E0,1.430115104E-1,-2.698116302E-1,-2.457442284E-1
1.285856302E0,1.477593184E-1,-3.014230728E-1,-1.982259750E-1
1.293885539E0,1.468759179E-1,-3.468079567E-1,-7.193756104E-2
1.301878774E0,1.278035641E-1,-3.667421341E-1,5.057477951E-2
1.309875703E0,1.177620888E-1,-3.514900208E-1,1.650919914E-1
1.317870784E0,1.861510277E-1,-3.242282867E-1,1.905050278E-1
1.325867329E0,3.860020041E-1,-3.426799774E-1,1.674695015E-1
1.333863719E0,6.816197038E-1,-4.786758423E-1,1.053175926E-1
1.341858185E0,8.255389333E-1,-5.102105141E-1,-3.319168091E-2
1.349883729E0,8.479154706E-1,-5.155615807E-1,-2.915043831E-1
1.357879119E0,7.952828407E-1,-4.150958061E-1,-4.185509682E-1
1.365876586E0,8.861945271E-1,-4.118919373E-1,-4.792027473E-1
1.373872052E0,9.755630493E-1,-4.205398560E-1,-3.794217110E-1
1.381868980E0,1.027108669E0,-5.041546822E-1,-3.841123581E-1
1.389861832E0,1.014286041E0,-5.268955231E-1,-3.417367935E-1
1.397858761E0,9.360677004E-1,-4.882178307E-1,-3.726096153E-1
1.405885227E0,7.306374311E-1,-3.133430481E-1,-3.192830086E-1
1.413878771E0,3.447158337E-1,-5.789136887E-2,-3.457226753E-1
1.421873930E0,4.399240017E-2,1.622695923E-1,-2.527756691E-1
1.429869936E0,-1.082338095E-1,3.519644737E-1,-3.473453522E-1
1.437865633E0,-8.490955830E-2,4.367251396E-1,-4.636387825E-1
1.445862869E0,8.110940456E-2,4.659166336E-1,-7.131800652E-1
1.453857566E0,2.828697562E-1,4.051785469E-1,-8.816170692E-1
1.461884418E0,4.870368242E-1,3.940162659E-1,-7.629923820E-1
1.469881346E0,6.322726011E-1,4.302105904E-1,-5.857906342E-1
1.477877582E0,7.139719129E-1,3.641381264E-1,-7.414121628E-1
1.485871126E0,7.143244147E-1,3.821654320E-1,-8.435053825E-1
1.493868055E0,3.965031505E-1,5.268855095E-1,-5.660200119E-1
1.501863214E0,-5.347800255E-2,6.355433464E-1,-1.758460999E-1
1.509857065E0,-4.767562151E-1,6.924190521E-1,2.224211693E-1
1.517884685E0,-5.529603958E-1,6.755452156E-1,3.129601479E-1
1.525878307E0,-5.699551105E-1,6.838321686E-1,1.908435822E-1
1.533875465E0,-3.545633554E-1,8.311324120E-1,2.023463249E-1
1.541869701E0,-1.120288372E-1,1.007414818E0,2.337369919E-1
1.549865706E0,1.044389009E-1,1.141537189E0,1.823930740E-1
1.557862020E0,3.405239582E-1,1.201889515E0,-5.740785599E-2
1.565856794E0,7.142249942E-1,1.069597244E0,-3.492507935E-1
1.573882645E0,9.714275002E-1,8.418736458E-1,-5.741329193E-1
1.581877958E0,7.463091016E-1,7.212395668E-1,-6.894760132E-1
1.589873426E0,3.582057953E-1,8.070659637E-1,-6.165342331E-1
1.597869738E0,2.382999659E-1,8.333559036E-1,-4.997076988E-1
1.605865359E0,-2.029099464E-1,7.567076683E-1,-3.971953392E-1
1.613862595E0,-2.292983532E-1,6.967744827E-1,-4.270982742E-1
1.621889754E0,-2.836537361E-2,5.888581276E-1,-4.921813011E-1
1.629884144E0,1.292663813E-1,4.755096436E-1,-5.560455322E-1
1.637878995E0,3.647387028E-1,3.437824249E-1,-3.518376350E-1
1.645873693E0,6.285605431E-1,2.442526817E-1,-1.249203682E-1
1.653871237E0,8.279849291E-1,1.565318108E-1,-4.907560349E-2
1.661866627E0,9.693754911E-1,1.116504669E-1,-1.885590553E-1
1.669860862E0,1.017320633E0,1.219925880E-1,-3.185706139E-1
1.677887560E0,7.597788572E-1,1.658759117E-1,-2.759690285E-1
1.685883566E0,5.015687943E-1,3.356218338E-1,-1.513323784E-1
1.693877494E0,2.288733721E-1,4.802513123E-1,-6.702899933E-2
1.701873191E0,1.307260990E-2,5.146784782E-1,-1.658272743E-1
1.709868812E0,5.178689957E-2,4.984006882E-1,-2.771344185E-1
1.717865741E0,9.731662273E-2,4.410696030E-1,-3.839130402E-1
1.725862130E0,1.831737757E-1,5.400366783E-1,-4.295148849E-1
1.733886751E0,-2.133822441E-2,5.322699547E-1,-4.830617905E-1
1.741882371E0,1.039252281E-1,5.160298347E-1,-3.219342232E-1
1.749878070E0,-1.499176025E-3,5.652580261E-1,7.239007950E-2
1.757876536E0,-1.180002689E-1,6.293787956E-1,3.038678169E-1
1.765868926E0,1.470270157E-1,5.628085136E-1,1.004586220E-1
1.773865238E0,2.592483759E-1,4.011578560E-1,-3.010759354E-1
1.781860244E0,4.026508331E-1,2.602629662E-1,-5.628161430E-1
1.789855019E0,4.437469244E-1,1.986508369E-1,-5.302648544E-1
1.797884024E0,4.046285152E-1,2.452998161E-1,-3.136515617E-1
1.805877875E0,2.031205893E-1,2.262048721E-1,-1.014910221E0
1.813873573E0,-3.425652981E-1,5.456509590E-1,-4.713892937E-1
1.821869194E0,-3.133115768E-1,5.700478554E-1,2.950820923E-1
1.829864968E0,-3.142576218E-1,4.321084023E-1,5.586714745E-1
1.837861588E0,-2.453157902E-1,2.912817001E-1,3.655500412E-1
1.845887364E0,-3.416221142E-1,3.010025024E-1,4.121155739E-1
1.853884907E0,-3.646640778E-1,3.676815033E-1,3.391590118E-1
1.861880604E0,-5.020184517E-1,4.264183044E-1,8.920574188E-2
1.869874455E0,-5.609908104E-1,4.565238953E-1,1.837902069E-1
1.877870153E0,-3.900678158E-1,6.324682236E-1,6.866230965E-1
1.885866851E0,-1.385390759E-1,7.709045410E-1,7.846503258E-1
1.893859472E0,2.179912329E-1,8.283801079E-1,4.383392334E-1
1.901887169E0,3.944938183E-1,8.833565712E-1,-2.095999718E-1
1.909884097E0,4.104348421E-1,1.079549789E0,-6.235756874E-1
1.917877026E0,3.856277466E-2,1.220871449E0,-5.428109169E-1
1.925873031E0,-4.599788189E-1,1.299991608E0,-1.419286728E-1
1.933868421E0,-7.033569813E-1,1.428509712E0,1.957721710E-1
1.941864733E0,-1.368380070E0,1.096115112E0,3.982963562E-1
1.949862278E0,-1.301942110E0,1.079313278E0,5.573725700E-1
1.957885975E0,-9.779350758E-1,1.184687614E0,1.030352116E0
1.965881365E0,-8.408715725E-1,1.003307343E0,1.243140697E0
1.973877985E0,-8.080474138E-1,5.009942055E-1,1.165200710E0
1.981873299E0,-6.231498718E-1,3.259549141E-1,1.180721760E0
1.989868381E0,-3.389616013E-1,2.026343346E-1,1.329072952E0
1.997864078E0,-2.052727938E-1,8.658409119E-2,1.257794380E0
2.005860776E0,-1.664471626E-2,-1.399755478E-2,1.069395542E0
2.013887166E0,6.143140793E-2,-3.774309158E-2,8.347859383E-1
2.021882248E0,1.032166481E-1,-4.498815536E-2,5.508370399E-1
2.029876792E0,1.395155191E-1,-6.450462341E-2,3.861389160E-1
2.037871181E0,-5.269026756E-2,-7.999515533E-2,4.946031570E-1
2.045867495E0,-2.834500074E-1,-6.755161285E-2,6.905636787E-1
2.053863577E0,-7.800244093E-1,-1.007494926E-1,1.029808044E0
2.061859813E0,-9.349884987E-1,-8.650827408E-2,1.085692406E0
2.069885049E0,-7.964501381E-1,-1.289763451E-1,7.872481346E-1
2.077880824E0,-7.471014261E-1,-1.183485985E-1,6.496863365E-1
2.085879521E0,-7.626751661E-1,-3.577661514E-2,2.806496620E-1
2.093873372E0,-9.110687971E-1,7.280158997E-2,-5.335140228E-2
2.101867839E0,-8.827774525E-1,1.454486847E-1,-1.512947083E-1
2.109863229E0,-1.044916987E0,1.369743347E-1,-1.788601875E-1
2.117859927E0,-1.108284235E0,1.091918945E-1,-2.963752747E-1
2.125886932E0,-1.009678960E0,2.550506592E-2,-4.315166473E-1
2.133881783E0,-8.976904154E-1,-1.392230988E-1,-4.304208755E-1
2.141877174E0,-9.403929710E-1,-2.766475677E-1,-3.014135361E-1
2.149872794E0,-9.618463516E-1,-4.224739075E-1,-2.315521240E-1
2.157868876E0,-8.935889006E-1,-5.315532684E-1,-1.633825302E-1
2.165862419E0,-8.636484146E-1,-7.023158073E-1,-1.262092590E-2
2.173859964E0,-6.641490459E-1,-8.192486763E-1,-2.574443817E-3
2.181885815E0,-5.115739107E-1,-1.023460388E0,8.463191986E-2
2.189880205E0,-3.956996202E-1,-1.023962498E0,3.608789444E-1
2.197879671E0,-4.455516338E-1,-1.043131351E0,6.706943512E-1
2.205873447E0,-3.728232384E-1,-9.863772392E-1,7.756996155E-1
2.213867990E0,-1.783114672E-1,-8.862547874E-1,7.009057999E-1
2.221863072E0,8.384144306E-2,-8.777160645E-1,5.478506088E-1
2.229858154E0,2.705038786E-1,-7.646679878E-1,3.767242432E-1
2.237885852E0,1.106181145E-1,-6.820268631E-1,2.414360046E-1
2.245880934E0,8.983719349E-2,-5.553307533E-1,8.158159256E-2
2.253877170E0,9.795045853E-2,-4.433403015E-1,-8.287429810E-4
2.261872637E0,5.787789822E-2,-3.379034996E-1,-1.719288826E-1
2.269868566E0,-5.424857140E-2,-2.599463463E-1,-3.867301941E-1
2.277865263E0,-2.500110865E-1,-2.371873856E-1,-5.604381561E-1
2.285858729E0,-3.249157667E-1,-2.614612579E-1,-7.110881805E-1
2.293885196E0,-3.586956263E-1,-1.308107376E-1,-8.995523453E-1
2.301883048E0,-3.055529594E-1,-5.820035934E-2,-1.049795628E0
2.309876592E0,-2.632719278E-1,-5.571317673E-2,-1.195220947E0
2.317872289E0,-2.169255018E-1,-8.384513855E-2,-1.174068451E0
2.325868371E0,-2.608747482E-1,-1.855993271E-1,-1.007628918E0
2.333863454E0,-3.645399809E-1,-2.546763420E-1,-8.543262482E-1
2.341858767E0,-4.920639992E-1,-3.274688721E-1,-6.132693291E-1
2.349884695E0,-4.795528650E-1,-3.885407448E-1,-4.152283669E-1
2.357879777E0,-3.511668444E-1,-4.632959366E-1,-3.330979347E-1
2.365876706E0,-2.232521772E-1,-5.089306831E-1,-3.567538261E-1
2.373870865E0,-1.048156023E-1,-5.662112236E-1,-3.519024849E-1
2.381867408E0,1.001209021E-1,-5.537528992E-1,-2.107257843E-1
2.389863490E0,1.571857929E-1,-4.863843918E-1,-6.679534912E-2
2.397859495E0,1.693100929E-1,-3.774266243E-1,6.436347961E-2
2.405884040E0,1.244487762E-1,-2.484898567E-1,1.253108978E-1
2.413881352E0,-4.539489746E-4,-1.577062607E-1,-2.263641357E-2
2.421878280E0,-1.571329832E-1,2.416753769E-2,-3.554062843E-1
2.429872747E0,-2.559025288E-1,2.299380302E-1,-6.522932053E-1
2.437867445E0,-3.679118156E-1,3.444824219E-1,-9.249024391E-1
2.445861912E0,-3.760170937E-1,3.937544823E-1,-1.050825119E0
2.453858532E0,-3.333294392E-1,3.528885841E-1,-1.069827080E0
2.461883537E0,-2.152380943E-1,3.063488007E-1,-1.008656979E0
2.469879159E0,-1.077804565E-1,2.665262222E-1,-8.293366432E-1
2.477875241E0,-1.923763752E-1,2.263498306E-1,-6.275696754E-1
2.485873399E0,-2.890911102E-1,2.286076546E-1,-4.149231911E-1
2.493866251E0,-4.174525738E-1,2.006111145E-1,-2.768821716E-1
2.501861718E0,-4.760627747E-1,2.075867653E-1,-1.880874634E-1
2.509857415E0,-4.972069263E-1,2.496104240E-1,-1.609187126E-1
2.517883882E0,-4.600937366E-1,2.552046776E-1,-1.791734695E-1
2.525880810E0,-3.672578335E-1,2.630267143E-1,-2.703013420E-1
2.533875816E0,-2.821426392E-1,3.047208786E-1,-3.051567078E-1
2.541870590E0,-2.905333042E-1,3.016762733E-1,-2.241477966E-1
2.549868134E0,-3.750360012E-1,3.610706329E-1,-1.175427437E-1
2.557861677E0,-3.992362022E-1,4.001026154E-1,-2.251863480E-2
2.565858683E0,-3.321495056E-1,3.855004311E-1,-3.842353821E-3
2.573884150E0,-2.716560364E-1,3.482384682E-1,-2.535963058E-2
2.581880155E0,-2.170274258E-1,3.414711952E-1,-1.064515114E-1
2.589875006E0,-2.116084099E-1,3.268337250E-1,-1.896634102E-1
2.597872243E0,-1.952602863E-1,3.431501389E-1,-2.394814491E-1
2.605865709E0,-1.516916752E-1,3.257098198E-1,-2.511835098E-1
2.613863945E0,-1.785647869E-1,3.176627159E-1,-2.198729515E-1
2.621857796E0,-1.944322586E-1,3.070058823E-1,-1.646552086E-1
2.629884264E0,-1.369030476E-1,2.358088493E-1,-1.119189262E-1
2.637879038E0,-1.071271896E-1,1.609001160E-1,-6.057310104E-2
2.645875966E0,-1.615102291E-1,9.435462952E-2,-7.265853882E-2
2.653872894E0,-2.582101822E-1,7.772445679E-2,-4.092645645E-2
2.661866131E0,-4.785444736E-1,2.894401550E-3,1.823472977E-2
2.669862752E0,-5.995694399E-1,-1.062874794E-1,9.301471710E-2
2.677858757E0,-6.067796946E-1,-2.525510788E-1,1.382761002E-1
2.685886146E0,-5.376081467E-1,-3.649086952E-1,1.143598557E-1
2.693879614E0,-4.227577448E-1,-4.225683212E-1,1.012754440E-2
2.701873850E0,-3.768279552E-1,-4.405555725E-1,-1.042718887E-1
2.709871009E0,-2.990180254E-1,-3.386259079E-1,-2.498774529E-1
2.717866706E0,-1.282134056E-1,-2.088136673E-1,-3.709168434E-1
2.725861789E0,-1.987314224E-2,-4.113006592E-2,-5.785241127E-1
2.733889794E0,1.142947674E-1,1.030511856E-1,-7.251605988E-1
2.741883414E0,2.083203793E-1,1.838788986E-1,-8.957953453E-1
2.749880035E0,1.469182968E-1,2.083783150E-1,-9.028735161E-1
2.757873579E0,5.335140228E-2,2.295837402E-1,-6.841850281E-1
2.765870738E0,-1.220074892E-1,2.929224968E-1,-3.496303558E-1
2.773864666E0,-3.754045963E-1,2.687478065E-1,7.756614685E-2
2.781861594E0,-3.707947731E-1,2.920093536E-1,3.614439964E-1
2.789886523E0,-2.295279503E-1,2.572526932E-1,4.944987297E-1
2.797881913E0,-1.395391226E-1,2.073450089E-1,4.964485168E-1
2.805880687E0,-1.725888252E-2,1.854429245E-1,6.455440521E-1
2.813873538E0,5.282497406E-2,3.095269203E-1,6.871490479E-1
2.821870544E0,2.225044966E-1,5.602283478E-1,7.552042007E-1
2.829865626E0,3.476456404E-1,8.078823090E-1,4.597573280E-1
2.837863708E0,5.457621813E-1,1.058518887E0,1.516027451E-1
2.845857636E0,7.017456293E-1,1.139275074E0,-1.382980347E-1
2.853881950E0,6.889978647E-1,1.241724491E0,-1.220340729E-1
2.861877340E0,6.628919840E-1,1.185211182E0,-5.423164368E-2
2.869873652E0,4.712704420E-1,1.152108192E0,3.564763069E-1
2.877870580E0,8.612692356E-2,9.765639305E-1,8.054533005E-1
2.885865048E0,-2.494243383E-1,7.117514610E-1,1.440366268E0
2.893860745E0,-3.985725641E-1,4.370284081E-1,1.977416039E0
2.901856058E0,-2.332760096E-1,2.324371338E-1,2.242945194E0
2.909883525E0,-5.360794067E-2,5.590009689E-2,1.953856945E0
2.917880684E0,1.706798077E-1,-8.351993561E-2,1.333618641E0
2.925874613E0,3.186622858E-1,-1.003713608E-1,8.380670547E-1
2.933872156E0,3.842618465E-1,-5.539894104E-2,4.107952118E-1
2.941864700E0,3.371002674E-1,-1.464924812E-1,2.760267258E-1
2.949859781E0,9.881222248E-2,-1.584329605E-1,2.876815796E-1
2.957889326E0,-4.676866531E-2,-3.037447929E-1,3.738598824E-1
2.965885331E0,1.435102224E-1,-5.848636627E-1,6.893424988E-1
2.973879567E0,3.746465445E-1,-7.842645645E-1,9.255256653E-1
2.981874341E0,3.861920834E-1,-1.022112846E0,9.752640724E-1
2.989868193E0,7.712647915E-1,-1.398514271E0,1.189887047E0
2.997864737E0,9.313523769E-1,-1.427288055E0,1.722468376E0
3.005861434E0,5.389868021E-1,-9.716048241E-1,1.857001781E0
3.013887901E0,3.091084957E-1,-6.545720100E-1,1.286360741E0
3.021883214E0,5.293002129E-1,-5.925602913E-1,9.045019150E-1
3.029877681E0,1.138082385E0,-4.868297577E-1,4.625272751E-1
3.037874070E0,1.608577371E0,-4.588108063E-1,1.673889160E-1
3.045868768E0,1.896687150E0,-6.100316048E-1,-9.686422348E-2
3.053865774E0,1.378264785E0,-6.634235382E-3,-1.930127144E-1
3.061861394E0,7.420063019E-1,-2.532072067E-1,3.760476112E-1
3.069886938E0,1.062005162E0,-6.555757523E-1,7.601046562E-1
3.077882943E0,1.066802979E0,-9.810318947E-1,8.947081566E-1
3.085878410E0,6.297302842E-1,-9.556269646E-1,9.518160820E-1
3.093875338E0,5.263563395E-1,-9.036993980E-1,8.323907852E-1
3.101870651E0,6.571198702E-1,-8.171372414E-1,4.981899261E-1
3.109865118E0,7.289732695E-1,-8.047671318E-1,-8.848934174E-1
3.117859893E0,9.148721099E-1,-7.649636269E-1,-1.523470402E0
3.125855282E0,1.711484671E0,-7.281041145E-1,-1.499587059E0
3.133882672E0,2.522281170E0,-9.143519402E-1,-1.218275070E0
3.141876831E0,2.539900780E0,-1.029330254E0,-7.581539154E-1
3.149874760E0,1.930325747E0,-1.128279686E0,-2.068557739E-1
3.157869457E0,1.380796313E0,-1.283932686E0,1.179203987E-1
3.165866693E0,1.521003008E0,-1.160237789E0,-6.289482117E-2
3.173859314E0,1.081410646E0,-6.201930046E-1,-4.557094574E-1
3.181885243E0,6.479789019E-1,-1.154656410E-1,-1.035025597E0
3.189881786E0,8.752791882E-1,1.277971268E-1,-1.488379478E0
3.197876330E0,7.246911526E-1,1.169409752E-1,-1.513812065E0
3.205873796E0,6.886800528E-1,-2.230615616E-1,-4.585952759E-1
3.213868956E0,1.515039086E0,-9.960160255E-1,7.904877663E-1
3.221863730E0,9.531129599E-1,-1.419505119E0,1.201796055E0
3.229860351E0,-3.613477945E-1,-1.093665600E0,7.986111641E-1
3.237856356E0,-1.011557579E0,-1.572833538E0,-5.933566093E-1
3.245882516E0,-1.697307944E0,-1.494052410E0,-2.109233379E0
3.253878136E0,-3.597833395E0,-1.693361759E0,-7.548632622E-1
3.261873910E0,-1.078132629E0,-1.649202347E0,1.930401325E0
3.269869531E0,-1.913908720E0,-8.008956909E-1,-5.744013786E-1
3.277863767E0,-1.120181322E0,-1.071623802E0,-2.097856998E0
3.285859157E0,2.717083216E0,-1.078736305E0,-1.104774475E0
3.293886854E0,4.536791801E0,-9.338397980E-1,-4.244089127E-2
3.301881859E0,5.529200554E0,1.700677872E-1,1.186756134E0
3.309877942E0,3.979109287E0,7.692189217E-1,1.463493347E0
3.317873947E0,2.389203310E0,6.076292992E-1,8.688904762E0
3.325868414E0,-5.133343935E-1,1.714068890E0,1.337183952E0
3.333863419E0,8.727819920E-1,5.636882782E-2,2.624726295E0
3.341859194E0,-7.344862819E-1,3.197097778E-2,2.297985077E0
3.349885661E0,-1.485770822E0,-1.421654224E0,2.360842705E0
3.357880666E0,-1.426731825E0,-8.234009743E-1,1.828348160E0
3.365876748E0,-2.697834969E-1,3.285446167E-1,1.555703163E0
3.373871446E0,5.600250959E-1,9.762043953E-1,1.609834671E0
3.381868143E0,-1.104517817E0,6.520376205E-1,1.884372711E0
3.389864072E0,-7.841790915E-1,-1.922273636E-2,2.089550018E0
3.397860692E0,-1.645423174E-1,1.495776176E-1,1.170167923E0
3.405885313E0,6.537135839E-1,-1.834154129E-2,7.995347977E-1
3.413880395E0,1.247874141E0,-1.690917015E-1,1.328516006E-1
3.421875554E0,1.601807237E0,-1.492052078E-1,-1.917524338E-1
3.429873098E0,1.278950214E0,-6.637430191E-2,-4.408698082E-1
3.437870026E0,2.603856325E-1,-2.607660294E-1,-2.157154083E-1
3.445865416E0,8.705519438E-1,-1.909179688E-1,2.450389862E-1
3.453861114E0,9.321897030E-1,-6.840467453E-2,7.031993866E-1
3.461886965E0,6.041823626E-1,-4.294013977E-2,4.807901382E-1
3.469880739E0,3.714829683E-1,-4.385924339E-1,-2.413058281E-1
3.477875514E0,8.269906044E-1,-5.479397774E-1,-8.044977188E-1
3.485873981E0,9.574191570E-1,-4.634985924E-1,-6.502900124E-1
3.493868217E0,2.962912321E-1,-1.889748573E-1,-2.403903008E-1
3.501862376E0,-2.970749140E-1,1.765871048E-1,-3.929915428E-1
3.509859228E0,-7.464695573E-1,1.946821213E-1,-4.809584618E-1
3.517884233E0,-9.751308560E-1,5.297861099E-1,-4.207553864E-1
3.525880238E0,-2.139027119E0,2.949304581E-1,2.766825199E0
3.533876474E0,-3.394110203E-1,1.080650806E0,-9.262843132E-1
3.541871556E0,1.846123219E0,1.781749725E-1,-1.506562233E-1
3.549869408E0,2.911213875E0,-3.818950653E-1,1.204189777E0
3.557864182E0,2.405484676E0,-4.985885620E-1,1.885333061E0
3.565890341E0,2.030707121E0,-4.400987625E-1,8.350892067E-1
3.573885193E0,1.188738465E0,-2.966499329E-1,-1.383719444E-1
3.581882660E0,6.543896198E-1,-5.927610397E-2,-3.569374084E-1
3.589877126E0,-6.668853164E-1,3.201270103E-1,-3.406186104E-1
3.597872900E0,-8.857880831E-1,4.424605370E-1,-8.447389603E-1
3.605866368E0,-9.924287796E-1,5.209488869E-1,-1.052671432E0
3.613863604E0,-8.063916564E-1,5.251674652E-1,-3.648538589E-1
3.621860532E0,-1.311867714E0,5.797648430E-1,3.344278336E-1
3.629885229E0,-1.308787346E0,-1.196708679E-1,5.039930344E-1
3.637881774E0,-2.814676762E-1,-5.682487488E-1,4.358854294E-1
3.645876317E0,2.229055166E-1,-3.921175003E-1,7.491507530E-1
3.653871707E0,-4.946104288E-1,-5.692353249E-1,1.006835461E0
3.661866096E0,-5.128860474E-2,-7.284474373E-1,5.186066628E-1
3.669861872E0,1.431540251E-1,-8.561601639E-1,-2.810802460E-1
3.677859338E0,-8.143540621E-1,-7.107663155E-1,-9.053168297E-1
3.685883728E0,2.138235569E-1,-3.269782066E-1,-1.182705402E0
3.693880887E0,-2.070869207E-1,-2.545466423E-1,-1.568295002E0
3.701876354E0,-6.176263094E-1,-5.629429817E-1,-1.187113762E0
3.709871436E0,-3.991581202E-1,-6.440834999E-1,-4.715461731E-1
3.717868980E0,-2.184184790E-1,-6.832175255E-1,-3.395080566E-2
3.725861908E0,-2.567368746E-1,-6.459298134E-1,6.049261093E-1
3.733858760E0,-3.252565861E-1,-6.596279144E-1,7.620759010E-1
3.741884303E0,-3.770058155E-1,-6.395716667E-1,1.005704403E0
3.749878847E0,-5.625303984E-1,-7.699470520E-1,1.194861889E0
3.757876006E0,-8.834487200E-1,-1.019779205E0,1.492341518E0
3.765871089E0,-5.439699292E-1,-9.529151917E-1,1.172030449E0
3.773865632E0,-6.738107204E-1,-9.579358101E-1,1.278265953E0
3.781862868E0,-7.620606422E-1,-9.459385872E-1,1.176649094E0
3.789887488E0,-9.252231121E-1,-6.136631966E-1,1.217195511E0
3.797883494E0,-1.014709234E0,-4.450597763E-1,1.007905960E0
3.805881653E0,-9.014225006E-1,-3.991007805E-1,6.244916916E-1
3.813876351E0,-7.742173672E-1,-2.405653000E-1,5.413942337E-1
3.821870894E0,-7.657451630E-1,-3.909029961E-1,-1.845932007E-2
3.829866823E0,-5.607559681E-1,-4.557242393E-1,-1.749968529E-1
3.837865059E0,1.832407713E-1,-4.033484459E-1,1.313251972E0
3.845858525E0,1.886917949E-1,-1.369304657E-1,2.438856602E0
3.853883146E0,-9.328955412E-2,4.190745354E-1,-1.603560925E0
3.861880383E0,1.012066841E0,6.035399437E-1,-1.373531342E0
3.869874234E0,1.379845738E0,3.536019325E-1,-1.908359528E-1
3.877871854E0,7.449853420E-1,1.875562668E-1,-2.799749374E-1
3.885866936E0,6.588390470E-1,3.430328369E-1,2.396926880E-1
3.893862019E0,6.057228446E-1,3.399701118E-1,2.997303009E-1
3.901887178E0,5.640755892E-1,2.531924248E-1,-2.286510468E-1
3.909884106E0,1.343597054E0,3.140721321E-1,9.045538902E-1
3.917881111E0,1.118495941E0,1.279726028E-1,7.364792824E-1
3.925873732E0,6.069084406E-1,3.402709961E-3,2.985095978E-2
3.933872507E0,5.221267343E-1,-1.392407417E-1,2.109251022E-1
3.941864819E0,3.088969886E-1,-4.506502151E-1,-2.070240974E-1
3.949860209E0,-1.808030009E-1,-6.052637100E-1,-2.151103020E-1
3.957887830E0,-5.508933067E-1,-6.679062843E-1,-3.902258873E-1
3.965882374E0,-8.674740791E-1,-6.363697052E-1,-3.013253212E-1
3.973880764E0,-1.093479395E0,-5.082607269E-1,-2.844233513E-1
3.981875846E0,-1.024153233E0,-2.798409462E-1,-2.519130707E-2
3.989871004E0,-7.698396444E-1,-4.840850830E-3,2.184638977E-1
3.997868164E0,-2.673910856E-1,1.537199020E-1,2.447118759E-1
4.005861169E0,9.800013900E-2,3.207802773E-1,1.704845428E-1
4.013888482E0,4.873816669E-2,5.779695511E-1,9.621238708E-2
4.021882025E0,-3.430804312E-1,7.901630402E-1,1.096353531E-1
4.029879878E0,-6.912281513E-1,7.397756577E-1,1.315927505E-1
4.037873806E0,-8.684743643E-1,5.127835274E-1,1.310548782E-1
4.045868580E0,-1.073000550E0,3.429708481E-1,1.396551132E-1
4.053866739E0,-1.160971045E0,1.863822937E-1,9.570121765E-2
4.061861437E0,-1.274919629E0,3.335714340E-2,-3.079228401E-1
4.069857211E0,-1.450480461E0,-1.191363335E-1,-4.779734612E-1
4.077884909E0,-1.626735330E0,-2.043800354E-1,-4.781999588E-1
4.085877837E0,-1.721779227E0,-2.429203987E-1,-3.308582306E-1
4.093876304E0,-1.622216702E0,-2.332005501E-1,-9.037160873E-2
4.101871925E0,-1.364403009E0,-1.764154434E-1,1.101412773E-1
4.109865776E0,-7.769093513E-1,-5.440330505E-2,-2.782106400E-2
4.117861550E0,-1.667589545E-1,1.910252571E-1,-3.550386429E-2
4.125889249E0,1.672488451E-1,3.969168663E-1,-1.594028473E-1
4.133883638E0,2.693833411E-1,5.902853012E-1,-3.234324455E-1
4.141877797E0,2.539090514E-1,6.551518440E-1,-6.387577057E-1
4.149873187E0,7.680288982E-3,6.889424324E-1,-7.499237061E-1
4.157868962E0,-3.885086179E-1,7.251019478E-1,-7.975907326E-1
4.165865890E0,-7.106025219E-1,6.735887527E-1,-7.638983727E-1
4.173861818E0,-1.010869265E0,5.933947563E-1,-7.559452057E-1
4.181888285E0,-1.068130493E0,5.552148819E-1,-7.273898125E-1
4.189884906E0,-1.076609731E0,5.869340897E-1,-6.321315765E-1
4.197879450E0,-1.072546244E0,5.539460182E-1,-5.368251801E-1
4.205873839E0,-1.058984637E0,5.584917068E-1,-3.978052139E-1
4.213870844E0,-1.084882617E0,5.210485458E-1,-3.990035057E-1
4.221866158E0,-1.157481313E0,5.425324440E-1,-4.856295586E-1
4.229860701E0,-1.159388781E0,5.865144730E-1,-5.705895424E-1
4.237885937E0,-1.141266227E0,6.244149208E-1,-5.891351700E-1
4.245881942E0,-1.150976658E0,5.589599609E-1,-5.232968330E-1
4.253880410E0,-9.465768337E-1,4.792852402E-1,-2.488360405E-1
4.261876107E0,-7.644851804E-1,5.682873726E-1,4.945421219E-2
4.269867728E0,-4.365563989E-1,5.731525421E-1,4.920310974E-1
4.277865579E0,-1.482229978E-1,6.018319130E-1,6.042857170E-1
4.285861585E0,1.192171872E-1,5.968885422E-1,6.612429619E-1
4.293885282E0,9.314201772E-2,6.185708046E-1,5.931878090E-1
4.301883133E0,-5.004921556E-2,5.283002853E-1,5.435442924E-1
4.309878523E0,-3.139848113E-1,4.394335747E-1,4.732909203E-1
4.317872760E0,-5.527583361E-1,3.701353073E-1,5.245299339E-1
4.325868995E0,-7.272971869E-1,3.381199837E-1,5.454521179E-1
4.333865308E0,-8.328507543E-1,3.699522018E-1,6.650867462E-1
4.341860467E0,-7.208300829E-1,4.342074394E-1,8.861427307E-1
4.349888165E0,-3.601785004E-1,5.181655884E-1,1.008168697E0
4.357881709E0,1.833027601E-2,5.132584572E-1,9.629998207E-1
4.365877945E0,4.642359316E-1,5.387692451E-1,1.045906067E0
4.373874565E0,7.990013957E-1,5.988626480E-1,1.214665890E0
4.381869109E0,9.086193442E-1,8.380870819E-1,1.600205898E0
4.389864730E0,1.072393417E0,8.039588928E-1,1.795158863E0
4.397861120E0,1.315071821E0,5.839242935E-1,1.924942017E0
4.405886586E0,1.383849740E0,3.904209137E-1,1.954112053E0
4.413882669E0,1.258550167E0,2.578639984E-1,1.881558418E0
4.421876136E0,9.516076446E-1,2.382125854E-1,1.775002003E0
4.429873448E0,3.769754171E-1,2.276763916E-1,1.410254955E0
4.437868761E0,7.421499491E-2,1.352572441E-1,9.430994987E-1
4.445864844E0,-2.388517261E-1,2.975130081E-2,2.642998695E-1
4.453859311E0,-1.912094355E-1,-1.245126724E-1,-2.598838806E-1
4.461886085E0,-2.011828572E-1,-2.699422836E-1,-7.947502136E-1
4.469883628E0,-3.188557327E-1,-3.337206841E-1,-1.046926975E0
4.477877403E0,-3.958092332E-1,-3.637194633E-1,-1.311090469E0
4.485871947E0,-3.085571527E-1,-4.241046906E-1,-1.219284058E0
4.493869106E0,-3.955867887E-2,-5.798807144E-1,-9.460625648E-1
4.501863342E0,1.970519423E-1,-7.076330185E-1,-5.478854179E-1
4.509860500E0,5.164511204E-1,-7.969536781E-1,-1.908283234E-1
4.517885737E0,7.068079114E-1,-7.685627937E-1,1.732349396E-2
4.525879896E0,9.429960251E-1,-7.574944496E-1,2.524456978E-1
4.533877517E0,1.102954149E0,-8.320546150E-1,4.201102257E-1
4.541871060E0,1.381914735E0,-9.581522942E-1,4.886083603E-1
4.549868835E0,1.580476522E0,-1.055809498E0,3.828001022E-1
4.557863917E0,1.789773345E0,-1.109575748E0,1.926212311E-1
4.565860230E0,2.099263430E0,-1.178100586E0,8.448934555E-2
4.573886081E0,2.458404064E0,-1.167410374E0,1.583132744E-1
4.581881164E0,2.641277313E0,-1.106366158E0,1.483445168E-1
4.589876015E0,2.530702829E0,-9.808907509E-1,8.342266083E-2
4.597872943E0,2.263420820E0,-8.605542183E-1,-3.642129898E-2
4.605868333E0,2.016101360E0,-8.813395500E-1,-1.638951302E-1
4.613865185E0,1.794258356E0,-9.638047218E-1,-3.352184296E-1
4.621888652E0,1.448534966E0,-1.006917000E0,-4.885630608E-1
4.629885272E0,1.075723410E0,-9.360280037E-1,-6.242833138E-1
4.637881508E0,5.576648712E-1,-7.811965942E-1,-7.601017952E-1
4.645890129E0,2.312669754E-1,-6.074752808E-1,-7.590465546E-1
4.653874211E0,-1.259061694E-1,-3.571777344E-1,-6.763272285E-1
4.661866524E0,-2.634430528E-1,-2.151565552E-1,-6.000237465E-1
4.669862221E0,-1.306700259E-1,1.227636337E-1,-4.799661636E-1
4.677860689E0,-1.266396046E-2,2.507863045E-1,-3.101854324E-1
4.685886771E0,3.957413435E-1,2.968583107E-1,-2.016115189E-2
4.693882468E0,6.493252516E-1,3.047990799E-1,-6.810760498E-2
4.701875396E0,7.276180387E-1,2.836174965E-1,-1.710915565E-1
4.709871402E0,7.069063187E-1,1.870388985E-1,-3.257317543E-1
4.717870253E0,6.450515985E-1,2.538013458E-2,-3.387222290E-1
4.725864028E0,5.603604913E-1,-9.804105759E-2,-4.043045044E-1
4.733888956E0,6.181145310E-1,-2.982072830E-1,-4.721379280E-1
4.741884346E0,5.676140189E-1,-4.042596817E-1,-5.070724487E-1
4.749881274E0,4.460580945E-1,-4.181876183E-1,-3.945426941E-1
4.757876356E0,3.955245614E-1,-4.693088531E-1,-2.781596184E-1
4.765872361E0,4.271563888E-1,-5.821285248E-1,-1.191000938E-1
4.773866290E0,4.398435950E-1,-6.376299858E-1,-6.281280518E-2
4.781863834E0,4.636194110E-1,-5.900936127E-1,-1.141915321E-1
4.789888147E0,6.321969628E-1,-5.377230644E-1,-5.782890320E-2
4.797887229E0,8.726592064E-1,-3.350596428E-1,-1.770782471E-2
4.805882542E0,8.835270405E-1,-8.451080322E-2,-1.048889160E-1
4.813876470E0,8.361616731E-1,6.860494614E-2,-1.450891495E-1
4.821872091E0,7.936685681E-1,1.194815636E-1,-3.202610016E-1
4.829867557E0,6.393113136E-1,1.587862968E-1,-4.864511490E-1
4.837862563E0,4.572870135E-1,1.559996605E-1,-6.154584885E-1
4.845890953E0,3.693145812E-1,8.006906509E-2,-9.204320908E-1
4.853883266E0,1.579752266E-1,4.711866379E-2,-1.057681561E0
4.861881117E0,7.527947426E-2,1.485986710E-1,-1.111420631E0
4.869874892E0,1.239599213E-1,1.900515556E-1,-1.138623714E0
4.877870282E0,2.982389331E-1,3.035106659E-1,-1.010984421E0
4.885866671E0,5.744526982E-1,3.217434883E-1,-1.053971767E0
4.893862984E0,8.966092467E-1,3.509521484E-1,-1.151044369E0
4.901889144E0,1.127576947E0,3.984408379E-1,-1.124404907E0
4.909885149E0,1.344558001E0,4.282908440E-1,-1.005753040E0
4.917878693E0,1.434565783E0,4.826178551E-1,-8.929953575E-1
4.925874928E0,1.252951384E0,5.628461838E-1,-8.108983040E-1
4.933871934E0,9.714884162E-1,6.068291664E-1,-6.806054115E-1
4.941865170E0,7.014798522E-1,5.400371552E-1,-4.659013748E-1
4.949862944E0,5.403461456E-1,5.043530464E-1,-3.249707222E-1
4.957888180E0,3.182027936E-1,4.672822952E-1,-1.037888527E-1
4.965882955E0,1.710170805E-1,3.961548805E-1,-6.667613983E-2
4.973879653E0,2.111682594E-1,2.028450966E-1,-2.379841805E-1
4.981875658E0,2.794732153E-1,1.493358612E-1,-3.983383179E-1
4.989871663E0,4.011898041E-1,1.553430557E-1,-3.595991135E-1
4.997867360E0,5.974763632E-1,1.163206100E-1,-3.767752647E-1
5.005862674E0,-5.558362007E-1,2.937626839E-1,-9.122686386E-1
5.013887371E0,2.103469610E0,2.325296402E-2,1.593356133E-1
5.021884607E0,1.135425091E0,3.581438065E-1,-1.249086857E0
5.029879920E0,1.123327494E0,3.797450066E-1,-6.009106636E-1
5.037874080E0,1.437505126E0,1.728639603E-1,-8.781013489E-1
5.045872315E0,1.157257557E0,1.671943665E-1,-6.572546959E-1
5.053866474E0,5.823650956E-1,1.820464134E-1,-3.564109802E-1
5.061860633E0,1.785869300E-1,1.325888634E-1,-2.163710594E-1
5.069888947E0,-2.110732049E-1,1.157979965E-1,-4.956102371E-2
5.077882798E0,-4.051295519E-1,1.207633018E-1,9.797906876E-2
5.085881495E0,-4.117383361E-1,1.254749298E-1,2.841887474E-1
5.093876577E0,-1.970830411E-1,1.453313828E-1,4.242811203E-1
5.101870199E0,-1.198758706E-1,4.670758247E-1,5.690832138E-1
5.109866819E0,1.432081461E-1,6.641569138E-1,6.183791161E-1
5.117861824E0,3.756070137E-1,9.061932564E-1,6.275424957E-1
5.125887444E0,5.468011498E-1,1.063256264E0,5.636143684E-1
5.133882835E0,6.436538100E-1,1.244918823E0,4.464311600E-1
5.141877917E0,5.615998507E-1,1.352306366E0,3.701767921E-1
5.149876307E0,-1.108232290E-1,1.386448860E0,3.290934563E-1
5.157871158E0,7.564877272E-1,1.092125893E0,1.059662342E0
5.165868087E0,-3.175735474E-1,1.373463631E0,7.528510094E-1
5.173860630E0,-6.871997118E-1,1.465982437E0,1.188075542E0
5.181889866E0,-5.482640266E-1,1.097710609E0,1.255825520E0
5.189884025E0,-5.139369369E-1,8.091020584E-1,1.322856903E0
5.197878800E0,-4.953633249E-1,4.491100311E-1,1.169054985E0
5.205876344E0,-6.052743196E-1,1.117014885E-1,1.030794621E0
5.213870503E0,-9.055047035E-1,-1.022553444E-1,8.024339676E-1
5.221865661E0,-1.007217646E0,-2.691340446E-1,5.625920296E-1
5.229860360E0,-9.149280787E-1,-3.086042404E-1,3.818593025E-1
5.237886519E0,-8.374527097E-1,-2.422447205E-1,3.081598282E-1
5.245883754E0,-9.018194675E-1,-7.315778732E-2,3.973531723E-1
5.253879836E0,-8.843998909E-1,2.643585205E-2,4.768280983E-1
5.261873689E0,-7.860922217E-1,9.046602249E-2,6.564126015E-1
5.269869924E0,-7.275087833E-1,6.270074844E-2,9.229378700E-1
5.277864699E0,-6.778010726E-1,-1.265525818E-3,1.235223770E0
5.285863165E0,-7.623823881E-1,-7.778930664E-2,1.440379143E0
5.293886325E0,-1.080149055E0,-7.477855682E-2,1.697734833E0
5.301882638E0,-1.286578536E0,-9.897422791E-2,1.776432037E0
5.309879874E0,-1.406367779E0,-1.417279243E-1,1.612807274E0
5.317785220E0,-1.404600263E0,-2.023057938E-1,1.251716614E0
5.325779044E0,-1.374166131E0,-2.909574509E-1,7.368535995E-1
5.333774714E0,-1.286452055E0,-3.926720619E-1,4.530363083E-1
5.341768845E0,-1.122556806E0,-5.920071602E-1,1.902709007E-1
5.349795977E0,-9.195516109E-1,-8.012323380E-1,7.865667343E-2
5.357792494E0,-6.045740843E-1,-9.290676117E-1,6.759881973E-2
5.365234319E0,-3.664834499E-1,-9.951305389E-1,1.940250397E-3
5.373781449E0,3.791749477E-2,-1.148547173E0,-3.209114075E-4
5.381778888E0,4.766296148E-1,-1.268645763E0,-1.124982834E-1
5.389773020E0,6.454906464E-1,-1.267161369E0,-2.145385742E-1
5.397801690E0,5.677395463E-1,-1.230872154E0,-3.230824471E-1
5.405794514E0,3.474507928E-1,-1.254749298E0,-3.689408302E-1
5.413791107E0,5.599500611E-3,-1.245347977E0,-5.293450356E-1
5.421785854E0,-4.372009933E-1,-1.214065552E0,-5.463113785E-1
5.429783062E0,-8.104907274E-1,-1.172326088E0,-5.113892555E-1
5.437778502E0,-8.896218538E-1,-1.184582233E0,-5.516667366E-1
5.445775403E0,-9.047750831E-1,-1.123768330E0,-6.242237091E-1
5.453769458E0,-7.508050799E-1,-1.085342884E0,-6.048765182E-1
5.461793819E0,-4.039820135E-1,-1.083485603E0,-5.656318665E-1
5.469791259E0,-5.759491771E-2,-9.884471893E-1,-4.375410080E-1
5.477786314E0,1.764746904E-1,-8.834547997E-1,-1.685395241E-1
5.485903599E0,3.248530626E-1,-6.794533730E-1,-3.206491470E-2
5.493776115E0,4.013475180E-1,-5.802888870E-1,-1.354994774E-1
5.501774862E0,2.034082860E-1,-5.055150986E-1,-1.129684448E-1
5.509769379E0,-4.456841201E-2,-4.511446953E-1,-2.541046143E-1
5.517794895E0,-2.652581632E-1,-4.866228104E-1,-3.268623352E-1
5.525791180E0,-4.230942726E-1,-4.973616600E-1,-4.170913696E-1
5.533784696E0,-7.023484111E-1,-5.615372658E-1,-6.070256233E-1
5.541781521E0,-6.440943480E-1,-7.319359779E-1,-5.302762985E-1
5.549777191E0,-7.577456832E-1,-6.969165802E-1,-7.091560364E-1
5.557772553E0,-8.979970217E-1,-5.606985092E-1,-6.491727829E-1
5.565769838E0,-7.793183923E-1,-5.203857422E-1,-7.733430862E-1
5.573794047E0,-6.405352950E-1,-4.634757042E-1,-7.967853546E-1
5.581789410E0,-8.076395392E-1,-2.563652992E-1,-7.670006752E-1
5.589787310E0,-8.108837008E-1,-2.104401588E-1,-7.795271873E-1
5.597780134E0,-9.430321455E-1,-2.086772919E-1,-7.574439049E-1
5.605777727E0,-1.278232694E0,-1.555657387E-1,-8.704261780E-1
5.613774013E0,-1.773651242E-1,-3.534660339E-1,-5.958123207E-1
5.621766298E0,-5.539907217E-1,-9.800958633E-2,-7.335762978E-1
5.629794584E0,-2.925751805E-1,2.410984039E-2,-2.492690086E-1
5.637789946E0,-4.752680659E-3,-4.872035980E-2,-1.828236580E-1
5.645785001E0,-2.065788060E-1,6.449222565E-2,-1.276044846E-1
5.653780901E0,-4.357236624E-1,9.136629105E-2,-1.009645462E-1
5.661778725E0,-7.240005136E-1,8.546161652E-2,-5.591487885E-2
5.669770780E0,-8.900035620E-1,7.777214050E-2,-7.849121094E-2
5.677767605E0,-9.408082962E-1,1.912341118E-1,-8.805227280E-2
5.685794043E0,-8.237860203E-1,2.636575699E-1,-1.379003525E-1
5.693789175E0,-7.127509117E-1,3.533849716E-1,-1.595692635E-1
5.701785768E0,-7.570506930E-1,4.827208519E-1,-1.419663429E-1
5.709781977E0,-6.399698257E-1,4.059276581E-1,-1.035232544E-1
5.717776185E0,-6.215868592E-1,3.488402367E-1,4.435873032E-2
5.725772163E0,-6.711339951E-1,3.518743515E-1,2.613692284E-1
5.733766910E0,-5.900236964E-1,3.283720016E-1,4.044179916E-1
5.741795195E0,-5.639466047E-1,4.292492867E-1,7.224192619E-1
5.749787404E0,-2.452254891E-1,5.153946877E-1,1.174966812E0
5.757783151E0,-7.189005613E-2,5.972137451E-1,1.770889759E0
5.765778514E0,-3.436603844E-1,7.433505058E-1,2.465648651E0
5.773774415E0,-6.849101782E-1,1.017382622E0,2.855976582E0
5.781772930E0,-1.066984653E0,1.209696293E0,3.249570370E0
5.789767293E0,-1.137600541E0,1.388910294E0,3.470125198E0
5.797791963E0,-1.186739683E0,1.466203690E0,3.441658974E0
5.805788555E0,-9.628148079E-1,1.262221336E0,2.907755375E0
5.813784764E0,-6.944217682E-1,9.469084740E-1,2.349794865E0
5.821778588E0,-3.673876524E-1,7.229752541E-1,1.849754810E0
5.829776182E0,-1.122183502E-1,7.342710495E-1,1.665750980E0
5.837771237E0,4.992997944E-1,7.179841995E-1,1.617450714E0
5.845797060E0,1.215268135E0,6.225943565E-1,1.645721436E0
5.853792346E0,1.727597594E0,5.161728859E-1,1.710932732E0
5.861787478E0,2.030047178E0,3.341979980E-1,1.929643631E0
5.869782839E0,2.026825428E0,7.963323593E-2,1.731635094E0
5.877778202E0,1.615537763E0,8.281564713E-2,1.456442833E0
5.885773257E0,1.347368956E0,-3.482694626E-1,1.176175117E0
5.893771389E0,1.152799368E0,-6.614360809E-1,1.018422604E0
5.901796212E0,9.250315428E-1,-8.883452415E-1,8.330826759E-1
5.909792267E0,6.282784939E-1,-1.042638302E0,8.229389191E-1
5.917788245E0,5.531857610E-1,-1.261284351E0,8.356380463E-1
5.925782992E0,5.256587267E-1,-1.409631729E0,8.682131767E-1
5.933780431E0,6.173706055E-1,-1.575304031E0,9.870896339E-1
5.941773101E0,8.472346663E-1,-1.775369167E0,1.082583427E0
5.949768694E0,1.087345719E0,-1.932044983E0,1.146718979E0
5.957796365E0,1.344772220E0,-2.005211830E0,1.381542683E0
5.965792034E0,1.625472546E0,-2.044420719E0,1.628457546E0
5.973786243E0,1.697695017E0,-2.044774532E0,1.751097679E0
5.981783067E0,1.519873381E0,-2.040620327E0,1.639966965E0
5.989778814E0,1.388502836E0,-1.792906761E0,1.383845806E0
5.997774407E0,1.086763382E0,-1.745362759E0,7.991676331E-1
6.005770077E0,8.390915394E-1,-1.679812431E0,4.167366028E-1
6.013795363E0,5.793391466E-1,-1.557857513E0,6.689548492E-3
6.021790033E0,3.571408987E-1,-1.377764702E0,-2.964296341E-1
6.029785702E0,2.362251878E-1,-1.202117920E0,-5.711731911E-1
6.037781142E0,2.284021378E-1,-1.061491489E0,-8.636255264E-1
6.045776504E0,2.712606788E-1,-8.474812508E-1,-1.191263199E0
6.053772482E0,4.046478868E-1,-7.076301575E-1,-1.279633999E0
6.061768152E0,5.882161856E-1,-4.861631393E-1,-1.155226231E0
6.069793668E0,7.076418400E-1,-2.817687988E-1,-9.036588669E-1
6.077789262E0,6.974080205E-1,-1.848187447E-1,-6.116881371E-1
6.085784394E0,5.600996017E-1,-2.423386574E-1,-3.736844063E-1
6.093781909E0,2.378075123E-1,-4.168629646E-1,-1.288847923E-1
6.101778426E0,-9.264194965E-2,-6.231999397E-1,-1.271104813E-2
6.109771711E0,-4.332569242E-1,-8.275489807E-1,1.014709473E-3
6.117768843E0,-7.117782831E-1,-9.007396698E-1,-4.935169220E-2
6.125766051E0,-8.315442204E-1,-9.449086189E-1,-2.746939659E-1
6.133789490E0,-7.196106911E-1,-1.012101650E0,-5.343103409E-1
6.141786084E0,-5.338806510E-1,-1.019705772E0,-7.648415565E-1
6.149780754E0,-3.062166274E-1,-9.528069496E-1,-9.239048958E-1
6.157779193E0,-1.072824001E-2,-8.684005737E-1,-1.122068882E0
6.165771863E0,2.328959703E-1,-7.395639420E-1,-1.254583836E0
6.173768687E0,5.196993947E-1,-6.162233353E-1,-1.218783855E0
6.181793358E0,7.315166593E-1,-4.722352028E-1,-1.062269688E0
6.189788950E0,8.185791373E-1,-3.804678917E-1,-8.438625336E-1
6.197787082E0,7.557570338E-1,-3.399457932E-1,-6.005153656E-1
6.205780291E0,6.114344597E-1,-3.611817360E-1,-2.737617493E-1
6.213777192E0,5.083845854E-1,-4.171085358E-1,-1.947889328E-1
6.221772861E0,2.285348773E-1,-5.068120956E-1,-3.120203018E-1
6.229769531E0,-5.587670207E-2,-5.580863953E-1,-4.438619614E-1
6.237793125E0,-3.179757297E-1,-6.414585114E-1,-6.250061989E-1
6.245789795E0,-5.015848279E-1,-6.220097542E-1,-7.867865562E-1
6.253784772E0,-6.216183901E-1,-5.543942451E-1,-8.984613419E-1
6.261779827E0,-4.815311730E-1,-1.939587593E-1,-9.052958488E-1
6.269776728E0,-1.735292822E-1,-2.752876282E-2,-8.398284912E-1
6.277770629E0,1.208793521E-1,3.075509071E-1,-7.297048569E-1
6.285767760E0,4.161063135E-1,5.140862465E-1,-6.322145462E-1
6.293793969E0,6.015485525E-1,6.920390129E-1,-5.036439896E-1
6.301789639E0,7.037316561E-1,8.538742065E-1,-4.091382027E-1
6.309784002E0,8.308365941E-1,8.224821091E-1,-2.338490486E-1
6.317779440E0,8.812243938E-1,7.561311722E-1,7.697105408E-2
6.325775649E0,7.354720831E-1,6.994848251E-1,2.869834900E-1
6.333770396E0,5.525412560E-1,6.647586823E-1,4.150543213E-1
6.341767913E0,3.547007442E-1,6.854357719E-1,4.205031395E-1
6.349791967E0,2.897107005E-1,7.234072685E-1,3.869891167E-1
6.357789483E0,5.336821079E-1,5.652318001E-1,2.813310623E-1
6.365784154E0,7.678934932E-1,5.137515068E-1,8.563947678E-2
6.373779209E0,9.853967428E-1,4.671349525E-1,-2.706274986E-1
6.381774339E0,1.209443808E0,3.454880714E-1,-3.411307335E-1
6.389769625E0,1.219070792E0,2.249865532E-1,-1.422448158E-1
6.397767142E0,1.039072514E0,1.693601608E-1,1.115322113E-1
6.405791426E0,5.290286541E-1,1.551351547E-1,6.495752335E-1
6.413787712E0,-8.334609121E-2,1.404619217E-1,1.164294243E0
6.421785613E0,-6.210768819E-1,1.776542664E-1,1.787915707E0
6.429778514E0,-1.115224004E0,3.548450470E-1,2.149937630E0
6.437775954E0,-1.352561593E0,7.101874352E-1,2.430397987E0
6.445772008E0,-1.542175889E0,1.034144402E0,2.353096962E0
6.453765524E0,-1.516494036E0,1.132478237E0,1.942945004E0
6.461792195E0,-1.234673500E0,1.164058208E0,1.151545525E0
6.469788556E0,-1.014067888E0,1.204498291E0,-2.668032646E-1
6.477782380E0,-7.355407476E-1,1.216611385E0,-1.078928471E0
6.485778666E0,-6.715546250E-1,1.197524548E0,-1.491775990E0
6.493772721E0,-6.593078375E-1,1.446712017E0,-1.180730820E0
6.501769084E0,-1.363679647E0,1.900105000E0,-1.689367294E0
6.509764753E0,-1.052873492E0,1.242634773E0,-1.410835743E0
6.517793885E0,-1.006155372E0,6.074461937E-1,-1.028544426E0
6.525787094E0,-1.203119755E0,2.757258415E-1,-9.424571991E-1
6.533783686E0,-1.541253328E0,-1.754679680E-1,-5.933899879E-1
6.541776972E0,-1.598800063E0,-4.765911102E-1,1.449179649E-1
6.549774181E0,-1.505799532E0,-6.533894539E-1,1.578869343E0
6.557770159E0,-1.234440565E0,-7.154884338E-1,2.817164421E0
6.565767674E0,-9.688810110E-1,-7.846779823E-1,3.855803490E0
6.573793421E0,-9.191006422E-1,-7.946419716E-1,4.327184200E0
6.581787553E0,-1.053620696E0,-8.135342598E-1,4.557876587E0
6.589781762E0,-1.261113286E0,-7.719826698E-1,4.537887096E0
6.597780508E0,-1.493030787E0,-7.106661797E-1,4.309994698E0
6.605773717E0,-1.696292639E0,-5.583477020E-1,3.915089607E0
6.613769618E0,-1.905644417E0,-3.115682602E-1,3.337570667E0
6.621794212E0,-1.911790490E0,-1.638541222E-1,2.730067730E0
6.629790881E0,-1.677754045E0,-9.965419769E-2,1.895001411E0
6.637785859E0,-1.412092566E0,-1.030421257E-1,1.084509373E0
6.645784375E0,-1.193774462E0,-1.776590347E-1,2.686290741E-1
6.653776584E0,-1.002376080E0,-3.205118179E-1,-2.899684906E-1
6.661772638E0,-9.875065088E-1,-5.491547585E-1,-7.246847153E-1
6.669770770E0,-1.105987549E0,-7.659387589E-1,-7.309546471E-1
6.677764517E0,-1.195849657E0,-1.035516262E0,-1.961135864E-1
6.685790649E0,-1.206278563E0,-1.263700008E0,2.280340195E-1
6.693786934E0,-1.087300062E0,-1.517989159E0,6.450376511E-1
6.701780835E0,-9.188576937E-1,-1.654965401E0,8.540620804E-1
6.709778967E0,-3.586771190E-1,-1.901995659E0,1.020178795E0
6.717772099E0,1.143047214E-1,-1.972920895E0,1.072608471E0
6.725768383E0,2.776696682E-1,-1.790060520E0,8.927578926E-1
6.733763207E0,2.093558609E-1,-1.568579674E0,6.334390640E-1
6.741791801E0,1.474580020E-1,-1.373815060E0,1.228551865E-1
6.749786856E0,7.279095054E-2,-1.207725525E0,-4.143023491E-1
6.757782525E0,-1.504670382E-1,-1.058794022E0,-9.104719162E-1
6.765778503E0,-3.718476892E-1,-1.055933475E0,-9.373483658E-1
6.773773173E0,-3.610888422E-1,-1.169838905E0,-6.798052788E-1
6.781769152E0,-2.860683799E-1,-1.279830933E0,-4.021878242E-1
6.789763975E0,-1.227045208E-1,-1.444923878E0,-1.604309082E-1
6.797788799E0,1.399294287E-2,-1.493076801E0,-1.768627167E-1
6.805786315E0,1.463331580E-1,-1.525146961E0,-4.176607132E-1
6.813781140E0,3.908957243E-1,-1.558523655E0,-7.025971413E-1
6.821777117E0,6.337392926E-1,-1.454979420E0,-1.009532928E0
6.829770864E0,6.401901245E-1,-1.184537888E0,-1.172202587E0
6.837767226E0,6.148954630E-1,-1.022109985E0,-1.401785851E0
6.845794512E0,3.926024437E-1,-9.023690224E-1,-1.471465111E0
6.853790258E0,1.236332357E-1,-8.206858635E-1,-1.519931793E0
6.861784390E0,-1.449585110E-1,-7.825007439E-1,-1.541666508E0
6.869781214E0,-4.577874839E-1,-7.885160446E-1,-1.425755024E0
6.877775346E0,-6.625021100E-1,-6.867918968E-1,-1.276222706E0
6.885772246E0,-8.080921769E-1,-5.748314857E-1,-1.005129814E0
6.893767301E0,-9.022031426E-1,-4.635081291E-1,-8.099102974E-1
6.901763664E0,-8.838365078E-1,-2.783436775E-1,-6.644520760E-1
6.909790027E0,-6.862301826E-1,-1.268143654E-1,-6.407833099E-1
6.917785388E0,-5.471643806E-1,3.099822998E-2,-5.848026276E-1
6.925780443E0,-4.580812454E-1,1.606955528E-1,-5.482611656E-1
6.933776113E0,-2.171813846E-1,2.868208885E-1,-6.250452995E-1
6.941772168E0,8.013510704E-2,3.566284180E-1,-6.834583282E-1
6.949767838E0,4.081723690E-1,5.013389587E-1,-7.375907898E-1
6.957763200E0,5.788048506E-1,6.027650833E-1,-8.154788017E-1
6.965787717E0,5.623161197E-1,6.394815445E-1,-9.031744003E-1
6.973783156E0,4.428762794E-1,5.677323341E-1,-9.187211990E-1
6.981780980E0,7.841184735E-2,5.314707756E-1,-5.298213959E-1
6.989776881E0,-2.823168337E-1,5.692639351E-1,2.419118881E-1
6.997771705E0,-5.420967340E-1,5.447621346E-1,1.228788376E0
7.005767298E0,-7.871143818E-1,5.553159714E-1,2.017586231E0
7.013763968E0,-1.029297471E0,5.907435417E-1,2.683402538E0
7.021788484E0,-1.204734206E0,7.374229431E-1,3.214486599E0
7.029783231E0,-1.348127127E0,1.082610607E0,3.914220333E0
7.037779902E0,-1.225185871E0,1.521559238E0,4.367841721E0
7.045773648E0,-8.132007122E-1,1.982382774E0,4.451110363E0
7.053772472E0,-4.767303765E-1,2.256021500E0,4.001805782E0
7.061764681E0,-9.319037199E-2,2.183337688E0,2.961503029E0
7.069760736E0,6.441849470E-2,2.073777676E0,1.870821476E0
7.077788713E0,1.618248224E-2,2.124884605E0,5.748391151E-1
7.085782768E0,2.173020840E-1,2.122099400E0,-3.769254684E-2
7.093778823E0,8.709518313E-1,1.817805767E0,-1.348028183E-1
7.101775339E0,1.373468161E0,1.569892406E0,2.531051636E-2
7.109770470E0,1.982006550E0,1.121706486E0,4.899849892E-1
7.117767910E0,2.204274178E0,7.966318130E-1,1.118453979E0
7.125792272E0,2.124594450E0,3.292708397E-1,1.987499237E0
7.133787865E0,1.745952964E0,3.827047348E-2,2.571514606E0
7.141783920E0,1.419374704E0,-2.205395699E-1,3.343785763E0
7.149779513E0,1.173812151E0,-4.118466377E-1,4.051908970E0
7.157776106E0,1.033087373E0,-7.804694176E-1,4.641538143E0
7.165770315E0,9.960384965E-1,-1.195382595E0,4.840230942E0
7.173764754E0,1.035079360E0,-1.664950371E0,4.478991985E0
7.181793270E0,1.036951303E0,-1.975483894E0,3.882359505E0
7.189789248E0,1.029596329E0,-2.192955494E0,2.604412556E0
7.197782764E0,8.219833374E-1,-2.133718491E0,2.303068638E0
7.205776896E0,7.244836092E-1,-2.116850376E0,2.244203568E0
7.213774412E0,1.081740975E0,-2.081732273E0,2.062942982E0
7.221771390E0,1.506593823E0,-1.763780117E0,1.988004208E0
7.229766753E0,1.849615574E0,-1.627967834E0,1.720387459E0
7.237790653E0,2.228281021E0,-1.509699821E0,5.614709854E-1
7.245788477E0,2.424350977E0,-1.382181644E0,-6.181426048E-1
7.253782378E0,2.592373133E0,-1.295004845E0,-1.659343719E0
7.261778586E0,1.540114164E0,-8.396816254E-1,-2.382311821E0
7.269771872E0,3.049041033E0,-1.539934635E0,-2.768004656E0
7.277769311E0,1.707657337E0,-1.067006111E0,-2.980853319E0
7.285765597E0,1.241089821E0,-9.841675758E-1,-2.757976294E0
7.293790574E0,1.007653952E0,-9.627017975E-1,-2.506338120E0
7.301786860E0,4.203634262E-1,-8.554344177E-1,-1.864993572E0
7.309783991E0,4.379123449E-2,-8.292260170E-1,-1.446781635E0
7.317776585E0,-3.401911855E-1,-8.742251396E-1,-9.904966354E-1
7.325771716E0,-5.759392977E-1,-9.140729904E-1,-7.255263329E-1
7.333768617E0,-7.509529591E-1,-9.577178955E-1,-6.498904228E-1
7.341762979E0,-7.806918621E-1,-1.018963337E0,-6.541948318E-1
7.349789188E0,-6.572243571E-1,-9.687471390E-1,-6.566643715E-1
7.357785781E0,-3.469154239E-1,-8.856501579E-1,-6.221251488E-1
7.365781682E0,-5.714875460E-2,-7.578310966E-1,-6.056036949E-1
7.373777660E0,9.973162413E-2,-6.853199005E-1,-6.127271652E-1
7.381773407E0,2.444748282E-1,-6.798067093E-1,-7.324876785E-1
7.389768384E0,3.778436780E-1,-7.021541595E-1,-8.341736794E-1
7.397762593E0,4.174241424E-1,-7.227721214E-1,-1.057711124E0
7.405789879E0,3.390501738E-1,-7.697753906E-1,-1.224162102E0
7.413785626E0,9.478342533E-2,-8.087706566E-1,-1.480494499E0
7.421781911E0,6.604790688E-4,-8.558688164E-1,-1.513508797E0
7.429778427E0,-1.039689779E-2,-7.765431404E-1,-1.543702126E0
7.437771405E0,-3.092539310E-2,-6.952996254E-1,-1.405960560E0
7.445766152E0,-1.774283350E-1,-6.534261703E-1,-9.678120613E-1
7.453765514E0,-2.796070576E-1,-6.621708870E-1,-5.770525932E-1
7.461788569E0,-3.023333251E-1,-7.403006554E-1,-3.607378006E-1
7.469785162E0,-4.297332764E-1,-8.139600754E-1,-2.227311134E-1
7.477778602E0,-4.499233365E-1,-9.056634903E-1,-7.089471817E-2
7.485775887E0,-3.772090673E-1,-8.495573997E-1,3.183507919E-2
7.493770865E0,-2.876625359E-1,-7.352638245E-1,7.459640503E-2
7.501765919E0,-2.469547987E-1,-5.479874611E-1,7.600736618E-2
7.509764051E0,-2.041283846E-1,-2.952008247E-1,-1.359887123E-1
7.517789875E0,-2.397520542E-1,-9.029054642E-2,-3.428158760E-1
7.525784622E0,-2.295744121E-1,6.819915771E-2,-6.441850662E-1
7.533780984E0,-2.217362821E-1,1.725378036E-1,-8.146796227E-1
7.541775732E0,-1.994148493E-1,2.502245903E-1,-8.101577759E-1
7.549769863E0,-8.451199532E-2,2.432651520E-1,-7.017941475E-1
7.557768225E0,4.110330343E-2,3.504772186E-1,-3.436460495E-1
7.565764895E0,-3.317475319E-2,5.130586624E-1,1.245479584E-1
7.573789181E0,-2.467364371E-1,6.182713509E-1,7.943344116E-1
7.581785158E0,-1.936753094E-1,5.414714813E-1,1.259043694E0
7.589780444E0,5.797380209E-2,3.976745605E-1,1.454100132E0
7.597774345E0,1.951638460E-1,3.027963638E-1,1.498053551E0
7.605771246E0,3.697044253E-1,1.977667809E-1,1.331829548E0
7.613765377E0,4.659534693E-1,7.047653198E-2,1.200477123E0
7.621761047E0,3.799164295E-1,3.764629364E-2,1.108828068E0
7.629788025E0,2.966499329E-1,1.188139915E-1,1.116114140E0
7.637783465E0,2.566058636E-1,4.293122292E-1,1.269084930E0
7.645781903E0,2.310179472E-1,7.014322281E-1,1.263129234E0
7.653774805E0,-4.227340221E-2,1.064032078E0,8.874731064E-1
7.661769783E0,-4.620793462E-1,1.069711208E0,5.565910339E-1
7.669768222E0,-1.261867046E0,1.055624962E0,-1.334528923E-1
7.677761430E0,-2.206282139E0,1.300773144E0,-6.592264175E-1
7.685788793E0,-2.945955753E0,1.608377457E0,-8.436203003E-1
7.693783924E0,-2.812232256E0,1.581317902E0,-6.252784729E-1
7.701778672E0,-2.068498373E0,1.260432243E0,1.336193085E-1
7.709774264E0,-1.329904795E0,7.452640533E-1,9.028515816E-1
7.717769396E0,-5.160137415E-1,6.069660187E-2,1.873178959E0
7.725766297E0,-2.680884302E-1,-4.267458916E-1,2.525983810E0
7.733761660E0,-2.121732831E-1,-1.109546661E0,2.866585255E0
7.741787098E0,-6.619125605E-1,-1.383453846E0,2.878027916E0
7.749782153E0,-9.635416269E-1,-1.351479053E0,5.221286297E0
7.757777593E0,-1.837601423E0,-1.710842133E0,5.199520588E0
7.765773186E0,-2.854650021E0,-2.030198574E0,4.183797359E0
7.773769855E0,-3.247439623E0,-2.209688663E0,3.434382439E0
7.781764603E0,-1.961619139E0,-1.412586689E0,5.353131294E0
7.789791888E0,4.315751553E0,5.491156578E-1,9.877792358E0
7.797788865E0,5.863345146E0,2.655912399E0,7.961080551E0
7.805783536E0,8.769854307E-1,1.323118210E0,4.021272659E0
7.813778975E0,-1.582989216E0,1.067630291E0,1.010967255E0
7.821774876E0,-1.200376987E0,1.468892097E0,1.315347195E0
7.829771470E0,4.639664292E-1,1.667724133E0,8.796401024E-1
7.837764139E0,9.472302794E-1,7.976784706E-1,-1.067130566E0
7.845790271E0,-2.519224584E-1,-8.093118668E-2,-2.181595087E0
7.853786557E0,-9.276510477E-1,-4.183382988E-1,-2.649919033E0
7.861782764E0,-1.097883582E0,-6.118526459E-1,-3.320070505E0
7.869779666E0,-9.334208369E-1,-6.737284660E-1,-3.589770794E0
7.877772567E0,6.507098675E-2,-6.879172325E-1,-3.100042343E0
7.885769468E0,9.864903092E-1,-6.952757835E-1,-2.329701662E0
7.893766677E0,1.558495164E0,-8.352351189E-1,-1.723849773E0
7.901791654E0,1.571517944E0,-1.033763885E0,-1.362646103E0
7.909787016E0,1.506339550E0,-1.300108433E0,-7.570214272E-1
7.917781456E0,1.783672214E0,-1.397460461E0,-2.482805252E-1
7.925778279E0,2.064501286E0,-1.397456646E0,8.268356323E-2
7.933775180E0,1.985981584E0,-1.360772610E0,4.137802124E-2
7.941769620E0,1.323485136E0,-1.079054832E0,-2.954864502E-1
7.949766521E0,7.916927338E-1,-8.584356308E-1,-8.540086746E-1
7.957789267E0,4.489995837E-1,-7.723956108E-1,-1.870557785E0
7.965787706E0,3.320710659E-1,-7.955942154E-1,-2.473902464E0
7.973780685E0,3.943598270E-1,-7.008838654E-1,-2.690778732E0
7.981778124E0,3.313205838E-1,-7.593979836E-1,-2.696030140E0
7.989773255E0,4.129114747E-1,-1.028275967E0,-2.557375193E0
7.997767310E0,9.923803806E-2,-1.046836853E0,-2.230817795E0
8.005764288E0,-1.203583479E-1,-1.245638371E0,-1.667795658E0
8.013790651E0,-1.331581473E-1,-1.434032440E0,-6.682910919E-1
8.021786397E0,-3.537841439E-1,-1.548902988E0,7.102460861E-1
8.029782913E0,-5.088021755E-1,-1.379424095E0,1.487603188E0
8.037775507E0,-6.662966013E-1,-1.254879951E0,1.668291569E0
8.046046638E0,-8.742630482E-1,-1.359092236E0,1.319794178E0
8.053768385E0,-6.456736326E-1,-1.445377350E0,6.684751511E-1
8.061762824E0,-4.727726579E-1,-1.504697323E0,1.498818398E-1
8.069788341E0,-4.351765513E-1,-1.455824852E0,-7.403469086E-2
8.077784396E0,-4.692655504E-1,-1.346047878E0,-1.858549118E-1
8.085779373E0,-3.361211419E-1,-1.230531693E0,-9.195232391E-2
8.093777197E0,1.775294542E-2,-1.007603645E0,-1.186432838E-1
8.101772329E0,5.583783984E-1,-7.916951180E-1,-3.291139603E-1
8.109767615E0,9.365856051E-1,-4.775938988E-1,-7.571120262E-1
8.117762745E0,1.133465290E0,-1.115760803E-1,-1.335489273E0
8.125787954E0,1.052915096E0,1.117458344E-1,-9.916524887E-1
8.133785086E0,5.462799668E-1,2.037506104E-1,-9.964618683E-1
8.141778987E0,-5.007742047E-1,-1.617379189E-1,-8.722653389E-1
8.149776426E0,-1.132480383E0,-3.064107895E-1,-1.025621891E0
8.157770558E0,-1.106879473E0,-5.249104500E-1,-1.116787434E0
8.165767459E0,-1.712035656E0,-4.686269760E-1,8.664178848E-2
8.173763437E0,-1.804535031E0,-4.134759903E-1,-1.000590324E-1
8.181790491E0,-1.756191492E0,-4.145541191E-1,7.545866966E-1
8.189786161E0,-1.649294376E0,-3.559103012E-1,1.917864323E0
8.197780370E0,-1.946669102E0,4.352474213E-2,2.985940933E0
8.205775425E0,-1.847828150E0,4.174518585E-1,3.470402241E0
8.213771632E0,-9.968408346E-1,6.803264618E-1,3.502184868E0
8.221765534E0,-5.514947772E-1,1.414831161E0,3.198490620E0
8.229764204E0,2.419171333E-1,2.156059265E0,2.236559868E0
8.237789720E0,1.090474367E0,2.358930588E0,1.273986340E0
8.245785467E0,2.836793661E0,2.356484413E0,-3.970217705E-1
8.253780214E0,4.089121819E0,2.497495651E0,-1.783407927E0
8.261774884E0,4.488664150E0,2.986979485E0,-2.860536814E0
8.269771478E0,4.247369289E0,3.362568855E0,-2.704981565E0
8.277766608E0,3.600637436E0,3.376252174E0,-1.432220459E0
8.285761356E0,2.729190350E0,2.532231331E0,-4.894757271E-1
8.293788718E0,1.482952595E0,9.208297729E-1,4.701461792E-1
8.301784312E0,1.539548874E0,5.206813812E-1,1.416745663E0
8.309779981E0,1.549082756E0,3.984990120E-1,2.122726917E0
8.317776267E0,1.612927198E0,2.379522324E-1,2.724450111E0
8.321773563E0,1.543983698E0,1.798772812E-1,3.014456272E0
8.325769168E0,1.371601105E0,1.295990944E-1,3.636949062E0
8.333767684E0,1.189722657E0,-1.945734024E-2,4.466851234E0
8.341761815E0,1.139140606E0,-2.234301567E-1,4.927625656E0
8.349787332E0,1.315073609E0,-5.062422752E-1,4.819008827E0
8.357782310E0,1.787335157E0,-6.998500824E-1,4.338540554E0
8.365779519E0,1.790358186E0,-1.004647732E0,3.353717327E0
8.373775188E0,1.549972534E0,-1.320024014E0,2.059670448E0
8.381770627E0,1.465367317E0,-1.325384140E0,1.152803421E0
8.389766298E0,1.177947044E0,-1.399804115E0,3.858346939E-1
8.397762583E0,1.124139786E0,-1.432455540E0,-9.445667267E-2
8.405788945E0,1.632390141E0,-1.198806763E0,-5.709557533E-1
8.413781308E0,1.961313248E0,-1.002096653E0,-9.446434975E-1
8.421778440E0,2.166481972E0,-1.019173145E0,-1.481772423E0
8.429775648E0,1.907190800E0,-9.946703911E-1,-1.940607071E0
8.437770472E0,1.097445250E0,-1.956557274E0,-3.081104279E0
8.445765526E0,1.269576550E0,-1.988213539E0,-2.467810392E0
8.453759658E0,1.276209354E0,-1.869350433E0,-1.954189301E0
8.461785789E0,1.145208001E0,-1.711055279E0,-1.009693623E0
8.469784229E0,5.142735839E-1,-1.493376255E0,-1.325101852E-1
8.477780130E0,1.973491907E-2,-1.497293472E0,9.010381699E-1
8.485773954E0,1.069152355E-2,-1.543265343E0,2.082514763E0
8.493769932E0,-8.605945110E-2,-1.360908508E0,2.403863907E0
8.501765601E0,-3.134732842E-1,-1.427562237E0,2.049923897E0
8.509759810E0,-6.375308633E-1,-1.557157993E0,1.728483677E0
8.517787173E0,-6.918346882E-1,-1.364729404E0,1.361534595E0
8.525782227E0,-7.381744385E-1,-1.128163815E0,1.162202835E0
8.533778205E0,-1.835688353E0,-1.198374271E0,5.448045731E-1
8.541773567E0,-1.927313328E0,-1.283564091E0,5.543718338E-1
8.549768853E0,-2.012693167E0,-1.041890621E0,6.451683044E-1
8.557764600E0,-1.787392139E0,-7.698488235E-1,4.911022186E-1
8.565760577E0,-1.182426691E0,-4.350695610E-1,7.620859146E-2
8.573784863E0,-5.404058695E-1,-1.539139748E-1,-3.467316628E-1
8.581782687E0,4.206339121E-1,2.073779106E-1,-8.589887619E-1
8.589777741E0,1.226635933E0,4.396295547E-1,-1.122631073E0
8.597771796E0,1.271258831E0,4.398055077E-1,-1.308110714E0
8.605769005E0,1.428503275E0,1.498270035E-1,-1.166664124E0
8.613764445E0,-7.186581492E-1,-1.942524910E-1,-1.942253113E0
8.621790498E0,-4.748781621E-1,-5.670537949E-1,-1.407078743E0
8.629787169E0,1.707932353E-1,-7.021842003E-1,-5.426392555E-1
8.637781608E0,-2.858398557E-1,-5.664849281E-1,-5.006594658E-1
8.645775663E0,-6.006460786E-1,-4.947795868E-1,-4.619684219E-1
8.653773871E0,-8.210269213E-1,-4.768481255E-1,-7.257528305E-1
8.661767695E0,-1.234784842E0,-4.393606186E-1,-1.121236801E0
8.669763904E0,-4.776786268E-1,-9.362173080E-2,-1.227616310E0
8.677758036E0,8.266648054E-1,2.620825768E-1,-1.103427887E0
8.685786013E0,1.797723532E0,5.235834122E-1,-5.729632378E-1
8.693780760E0,2.041377068E0,9.657239914E-1,2.039613724E-1
8.701774969E0,1.389294147E0,9.122619629E-1,7.355775833E-1
8.709770870E0,-4.136205316E-1,6.374883652E-2,4.862270355E-1
8.717766232E0,-9.503842592E-1,-2.040891647E-1,8.903741837E-2
8.725762902E0,-1.070701957E0,9.411001205E-2,-1.552910805E-1
8.733758265E0,-1.282907248E0,6.568765640E-2,-6.091861725E-1
8.741786473E0,-1.195067883E0,-1.328792572E-1,-6.631231308E-1
8.749780604E0,-3.643994331E-1,-1.316041946E-1,-4.594416618E-1
8.757778198E0,2.978895903E-1,1.259512901E-1,-2.552518845E-1
8.765771330E0,1.000945926E0,-1.332092285E-2,-5.783557892E-2
8.773767384E0,1.585767508E0,-1.558880806E-1,5.867300034E-1
8.781763054E0,1.574578285E0,-1.639909744E-1,1.307918549E0
8.789757186E0,1.783574224E0,-4.581522942E-1,1.649734497E0
8.797783318E0,1.442517519E0,-4.464817047E-1,2.015879154E0
8.805779296E0,6.104843616E-1,3.824887276E-1,2.024645329E0
8.813774888E0,9.715908766E-2,1.162769794E0,1.523373127E0
8.821771866E0,1.741753817E-1,1.939715385E0,3.072261810E-1
8.829768690E0,3.278431296E-1,2.401815891E0,-7.738156319E-1
8.837763207E0,7.835420966E-1,3.103366852E0,-1.519121170E0
8.845879799E0,4.432058632E-1,3.472243309E0,-1.570274353E0
8.853783700E0,-8.088549972E-1,3.023274422E0,-1.423216343E0
8.861779140E0,-2.156425476E0,2.395793915E0,-1.018486500E0
8.869775733E0,-1.949823260E0,1.858868599E0,1.687426567E-1
8.877770710E0,-1.863211989E0,1.089661598E0,7.742428780E-1
8.885765842E0,-1.627849698E0,8.119926453E-1,1.524637222E0
8.893760820E0,-1.012421727E0,6.910996437E-1,1.982439518E0
8.901788490E0,-1.239611864E0,1.880416870E-1,2.340683937E0
8.909784160E0,-1.314422965E0,-1.079788208E-1,3.078096390E0
8.917779522E0,-1.290368319E0,-4.308376312E-1,3.809257507E0
8.925773116E0,-1.371908545E0,-4.731907845E-1,3.951999187E0
8.933770248E0,-1.930328608E0,-9.142465591E-1,3.259279251E0
8.941765994E0,-1.295909166E0,-1.136357307E0,3.432875156E0
8.949762280E0,-3.749201596E-1,-1.245095253E0,3.626563549E0
8.957785873E0,-2.050168753E0,-1.303223133E0,3.421832561E0
8.965785005E0,-1.199595690E0,-1.224381447E0,3.137016296E0
8.973777597E0,-2.242935896E0,-1.004519463E0,2.290489674E0
8.981775114E0,-1.779481292E0,-7.597556114E-1,1.372815609E0
8.989771399E0,-1.724120140E0,-3.940625191E-1,5.709218979E-2
8.997765531E0,-2.022611618E0,-2.089118958E-2,-3.880376816E-1
9.005761816E0,-8.810925484E-1,1.005368233E-1,-1.185525894E0
9.013786640E0,-4.672142267E-1,-1.442818642E-1,-2.575488329E0
9.021783618E0,-5.552962422E-1,-8.962535858E-2,-2.559531450E0
9.029777981E0,-9.531265497E-2,-3.990054131E-1,-2.259388447E0
9.037773035E0,2.915511429E-1,-6.452145576E-1,-1.451642990E0
9.045769013E0,9.432628155E-1,-9.207339287E-1,-6.971349716E-1
9.053765606E0,7.713240981E-1,-1.333495140E0,-9.153318405E-2
9.061761353E0,1.084639311E0,-1.693686485E0,3.701591492E-1
9.069785946E0,1.295921326E0,-1.865969181E0,5.223040581E-1
9.077784078E0,1.673546910E0,-1.880219460E0,5.316228867E-1
9.085778517E0,1.652415991E0,-1.870052338E0,5.248713493E-1
9.093772880E0,1.161663771E0,-1.905642509E0,5.265812874E-1
9.101770703E0,1.104476213E0,-1.781144142E0,6.277589798E-1
9.109764835E0,1.031790853E0,-1.825746536E0,1.496100426E-1
9.117759582E0,1.172514677E0,-1.888111591E0,-2.283191681E-1
9.125785791E0,7.914577723E-1,-1.667104244E0,-3.597435951E-1
9.133782076E0,7.438588142E-1,-1.226834774E0,-5.949940681E-1
9.141776208E0,1.093100309E0,-9.398221970E-1,-7.679295540E-1
9.149773955E0,7.190384865E-1,-8.964991570E-1,-7.979354858E-1
9.157768779E0,8.464094996E-1,-8.393468857E-1,-5.090517998E-1
9.165762602E0,7.836834788E-1,-8.093700409E-1,-7.244348526E-1
9.173758811E0,7.292375565E-1,-6.676287651E-1,-9.628572464E-1
9.181787481E0,2.885759771E-1,-6.444969177E-1,-1.369717598E0
9.189781535E0,-2.874992192E-1,-5.989227295E-1,-1.442065239E0
9.197777206E0,-4.172073305E-1,-5.039815903E-1,-1.283571243E0
9.205774491E0,-3.045527935E-1,-4.522747993E-1,-1.271035194E0
9.213767700E0,-1.388721019E-1,-3.778910637E-1,-1.504016876E0
9.221763370E0,1.643265039E-1,-2.916588783E-1,-1.650855064E0
9.229758655E0,2.192710489E-1,-1.252694130E-1,-1.743890285E0
9.237784248E0,1.462824494E-1,-7.300710678E-2,-1.813826084E0
9.245781457E0,1.979731023E-2,-1.324543953E-1,-1.877342224E0
9.253775280E0,-3.992854655E-1,-1.151437759E-1,-1.579324245E0
9.261771258E0,-4.643887877E-1,1.699542999E-2,-1.154119015E0
9.269769698E0,-5.784335136E-1,1.302199364E-1,-8.439245224E-1
9.277765061E0,-5.763286352E-1,2.933831215E-1,-6.769452095E-1
9.285759423E0,-5.219911933E-1,3.555297852E-1,-6.937928200E-1
9.293786477E0,-3.356264830E-1,5.075321198E-1,-7.405486107E-1
9.301779378E0,-2.402722687E-1,6.316032410E-1,-8.598589897E-1
9.309778126E0,-3.164322376E-1,6.675276756E-1,-8.789825439E-1
9.317771026E0,-6.160889268E-1,6.676378250E-1,-6.012573242E-1
9.325861158E0,-9.476459622E-1,6.124868393E-1,1.244468689E-1
9.333762751E0,-1.524589777E0,2.734117508E-1,7.750096321E-1
9.341758960E0,-1.337020755E0,2.184882164E-1,1.361832142E0
9.349783937E0,-1.168302774E0,2.517266273E-1,1.463230610E0
9.357781146E0,-4.317390323E-1,6.462831497E-1,1.428494453E0
9.365774585E0,-6.138891578E-1,8.548932076E-1,1.373833179E0
9.373772102E0,-4.664500356E-1,4.452676773E-1,1.324461460E0
9.381767848E0,-8.773691058E-1,4.299759865E-1,1.041099072E0
9.389762595E0,-9.145472050E-1,4.574289322E-1,1.181821823E0
9.397760035E0,-1.727046669E-1,8.264484406E-1,1.885825634E0
9.405782859E0,-1.055903733E-1,1.237907887E0,2.729755402E0
9.413781913E0,-5.164406300E-1,1.406786919E0,2.076240540E0
9.421775660E0,2.941696346E-1,1.930776596E0,1.173385143E0
9.429771407E0,1.184768677E0,2.018688202E0,6.759600639E-1
9.437767001E0,2.033301353E0,1.923539162E0,-4.208588600E-1
9.445760901E0,2.338217974E0,1.960784912E0,-1.214295864E0
9.453757417E0,1.937213063E0,2.221515656E0,-1.425008297E0
9.461784857E0,1.618734479E0,2.446761608E0,-7.606272697E-1
9.469780219E0,1.196652889E0,2.356559753E0,4.266457558E-1
9.477775812E0,1.196529269E0,1.929601669E0,1.121655464E0
9.485770559E0,1.830020666E0,1.634935379E0,1.939964771E0
9.493766229E0,2.059995413E0,1.509154320E0,2.114989758E0
9.501764054E0,1.873660326E0,1.160807610E0,2.282299519E0
9.509756646E0,1.005756259E0,5.732584000E-1,2.252618313E0
9.517782547E0,1.961961746E0,2.045388222E-1,3.274477005E0
9.525780602E0,2.024799824E0,-3.349781036E-2,4.843154430E0
9.533774503E0,1.108247042E0,-6.440863609E-1,5.394135952E0
9.541770095E0,8.203030825E-1,-1.228794098E0,4.830420017E0
9.549764612E0,1.626757860E0,-1.271522045E0,4.709133148E0
9.557759898E0,1.759732723E0,-1.339600563E0,4.441355705E0
9.565757799E0,1.924150229E0,-1.333900928E0,3.341428280E0
9.573782391E0,2.173511744E0,-1.148402214E0,2.258533955E0
9.581777754E0,2.426706553E0,-8.985762596E-1,1.013621330E0
9.589775886E0,2.569757938E0,-6.677317619E-1,2.620310783E-1
9.597770018E0,2.573006868E0,-4.691400528E-1,-4.212150574E-1
9.605767225E0,2.239461899E0,-4.834351540E-1,-6.808023453E-1
9.613760126E0,2.274410963E0,-6.795926094E-1,-1.182379246E0
9.621756028E0,2.224221468E0,-8.546953201E-1,-1.379644394E0
9.629781236E0,1.939884424E0,-9.315967560E-1,-1.304321766E0
9.637780059E0,1.909236193E0,-9.859066010E-1,-1.191860199E0
9.645773807E0,1.818488121E0,-1.094569683E0,-1.252677917E0
9.653770708E0,1.632107258E0,-1.220054626E0,-1.148431778E0
9.661766378E0,1.390798211E0,-1.292786121E0,-9.487266541E-1
9.669760817E0,9.888840914E-1,-1.363647461E0,-6.217770576E-1
9.677756487E0,6.491432786E-1,-1.455127239E0,-1.592988968E-1
9.685784234E0,6.189864874E-1,-1.682692051E0,-9.224319458E-2
9.693777751E0,7.414190769E-1,-1.911505222E0,-3.305964470E-1
9.701772420E0,8.283805847E-1,-1.846420288E0,-6.165504456E-1
9.709769398E0,4.180981517E-1,-1.654322147E0,-5.365614891E-1
9.717763838E0,2.937538326E-1,-1.303174019E0,-1.988534927E-1
9.725762277E0,6.407564282E-1,-1.057100296E0,-3.084564209E-2
9.733786562E0,5.880132318E-1,-8.991413116E-1,-1.355814934E-1
9.741780694E0,2.557351589E-1,-5.111103058E-1,-8.310341835E-1
9.749778133E0,-3.531093895E-1,-4.883146286E-1,-1.739716530E0
9.757771958E0,-1.356063366E0,-5.362348557E-1,-2.349485397E0
9.765770704E0,-9.836290479E-1,-3.327741623E-1,-2.300473213E0
9.773763682E0,-1.067983270E0,-3.613710403E-1,-1.560114384E0
9.781760814E0,3.075976372E-1,4.116759300E-1,-8.832740784E-1
9.789756176E0,-2.548868954E-1,1.268806458E-1,-4.981722832E-1
9.793783241E0,-2.596752942E-1,-1.436638832E-1,-6.202764511E-1
9.797781461E0,3.481149673E-2,-4.453334808E-1,-7.687172890E-1
9.805777747E0,-5.802103281E-1,-1.241753578E0,-7.039332390E-1
9.813772802E0,1.788576126E0,-5.510282516E-1,-1.277346611E0
9.821768780E0,3.246656060E-1,-6.163697243E-1,-2.399785519E0
9.829764757E0,-7.858656049E-1,-7.737646103E-1,-2.449178219E0
9.837759504E0,1.307119131E-1,1.864337921E-1,-2.516429901E0
9.845754867E0,-1.163739562E0,3.547568321E-1,-2.304084778E0
9.853781229E0,-1.880754113E0,2.751321793E-1,-1.733072281E0
9.861775668E0,4.879730940E-2,1.031055927E0,-1.052503586E0
9.869771107E0,-1.363196135E0,2.491946220E-1,-7.076473236E-1
9.877769162E0,1.138283730E0,6.210279465E-1,-1.784500599E0
9.885762063E0,5.537146330E-1,-4.058871269E-1,-2.122175694E0
9.893758040E0,3.206446409E0,-1.892652512E-1,-2.237285137E0
9.901785480E0,4.198400497E0,-1.533646584E-1,-2.023631096E0
9.909780766E0,2.254636765E0,-9.537401199E-1,-1.046139240E0
9.917775204E0,2.829883575E0,-8.248233795E-1,4.120826721E-3
9.925772490E0,1.748326898E0,-1.031299591E0,8.747272491E-1
9.933768083E0,4.553589821E-1,-9.480357170E-1,1.376945972E0
9.941765061E0,-6.161104441E-1,-4.265942574E-1,7.300224304E-1
9.949759501E0,-1.126508713E0,1.563124657E-1,-4.662952423E-1
9.957786555E0,-1.795058727E0,5.284547806E-1,-1.509380341E-2
9.965782841E0,-2.008663177E0,1.199882030E0,1.866369247E0
9.973778203E0,-9.749826789E-1,1.784126759E0,1.622564793E0
9.981772334E0,-2.137657166E0,1.552386761E0,2.122503757E0
9.989767389E0,-2.659892082E0,8.775634766E-1,4.040094376E0
9.997764829E0,4.385024309E-1,1.323506355E0,3.356902122E0
1.000575711E1,6.206754446E-1,1.120014668E0,2.332708359E0
1.001378324E1,1.490697622E0,1.334890842E0,1.861009598E-1
1.002178084E1,1.506483316E0,1.199529171E0,-1.218265533E0
1.002977559E1,7.748315334E-1,5.509233475E-1,2.548298836E-1
1.003777026E1,2.401228905E0,4.295530319E-1,-2.446842194E-1
1.004576593E1,2.979097128E0,6.354093552E-2,6.246576309E-1
1.005376352E1,2.458287239E0,-8.464894295E-1,2.222179890E0
1.006176004E1,9.330687523E-1,-1.608780861E0,3.667450905E0
1.006975455E1,5.307769775E-1,-1.794519424E0,4.439100742E0
1.007777968E1,-5.163025856E-2,-1.160055637E0,4.162491322E0
1.008577574E1,-1.323989391E0,-5.165805817E-1,2.930183411E0
1.009377164E1,-2.254756689E0,3.863191605E-1,1.637063026E0
1.010176769E1,-2.433311939E0,8.359055519E-1,8.990774155E-1
1.010976059E1,-2.259776115E0,7.833347321E-1,8.341069221E-1
1.011775988E1,-1.733891010E0,4.233121872E-1,1.531238079E0
1.012578393E1,-1.261687756E0,-8.387517929E-2,1.948490143E0
1.013378022E1,-8.867232800E-1,-9.689025879E-1,2.493146896E0
1.014177366E1,-7.798181772E-1,-1.700219631E0,2.232775211E0
1.014977125E1,-4.349102974E-1,-2.158603191E0,2.610578060E0
1.015776723E1,5.157270432E-1,-2.287877083E0,2.447066784E0
1.016576190E1,1.150197744E0,-2.460757732E0,1.497797489E0
1.017375795E1,1.467260838E0,-3.052323341E0,8.712372780E-1
1.018178316E1,1.758454323E0,-3.486822128E0,1.030120373E0
1.018978030E1,2.098958969E0,-3.677493334E0,1.631309032E0
1.019777512E1,2.683593035E0,-3.737804413E0,1.743142128E0
1.020576887E1,2.853278160E0,-3.560714006E0,1.417342186E0
1.021376638E1,2.053977728E0,-3.609765768E0,5.011467934E-1
1.022176275E1,-4.967956543E-1,-3.548047781E0,-2.892141342E-1
1.022975772E1,-3.025199413E0,-3.499738455E0,3.323836327E-1
1.023778355E1,-1.108206749E1,-3.085052490E0,5.547621250E0
1.024577776E1,-9.186416626E0,-1.802140236E0,6.171738625E0
1.025377250E1,-3.224579334E0,-2.472915649E-1,3.011801720E0
1.026177094E1,3.256435394E-1,6.022114754E-1,-8.266649246E-1
1.026976569E1,2.036488056E-1,1.188531399E0,-2.857747555E0
1.027776067E1,-2.049684048E0,1.101935387E0,-3.478011847E0
1.028575510E1,-3.064002037E0,1.358485699E0,-3.872392654E0
1.029378378E1,-1.790236950E0,1.199101448E0,-3.685028553E0
1.030177721E1,1.487874985E-1,4.708290100E-1,-2.430978298E0
1.030977327E1,1.184688330E0,-4.103946686E-2,-1.048178673E0
1.031777109E1,7.749874592E-1,-4.840621948E-1,1.037822723E0
1.032576361E1,-8.527851105E-2,-7.137947083E-1,2.747109413E0
1.033376028E1,9.770274162E-2,-7.616629601E-1,3.842602253E0
1.034175718E1,1.293083191E0,-3.125181198E-1,3.077617645E0
1.034978270E1,1.099423885E0,-3.617863655E-1,1.422074795E0
1.035777652E1,5.321791172E-1,-1.674418449E-1,1.955447197E-1
1.036577465E1,-8.250753880E-1,5.106115341E-1,-7.181921005E-1
1.037376840E1,-8.357689381E-1,8.681883812E-1,-1.351062775E0
1.038176476E1,1.050869465E0,1.084783554E0,-2.616875887E0
1.038976043E1,5.628972054E-1,8.136548996E-1,-2.581217051E0
1.039775418E1,-1.248555183E-1,8.371515274E-1,-2.858062029E0
1.040578070E1,-1.101509333E0,9.630045891E-1,-2.758838654E0
1.041377821E1,-2.585627317E0,1.404553413E0,-1.538781166E0
1.042177350E1,-2.825338840E0,2.055745602E0,-1.272460938E0
1.042976709E1,-2.150910854E0,1.659511089E0,-1.609666824E0
1.043776330E1,-2.052680016E0,6.484498978E-1,-1.260346889E0
1.044575997E1,-2.035943270E0,-1.413331032E-1,-4.028944969E-1
1.045375410E1,-2.117838144E0,-3.840022087E-1,-4.275417328E-2
1.046177992E1,-1.989425421E0,-7.025580406E-1,1.811161041E-1
1.046977736E1,-1.946934700E0,-6.792836189E-1,1.585855484E-1
1.047777250E1,-1.516020775E0,-6.825461388E-1,-8.725643158E-3
1.048576693E1,-1.197137117E0,-4.985914230E-1,-2.061285973E-1
1.049376322E1,-8.967294693E-1,-1.462316513E-2,-2.710566521E-1
1.050175943E1,-1.207046509E0,5.870556831E-1,-3.317570686E-1
1.050975364E1,-1.577376842E0,8.837699890E-1,4.967651367E-1
1.051778192E1,-1.071090221E0,6.534972191E-1,1.221788883E0
1.052577544E1,-9.092173576E-1,1.337366104E-1,2.052442074E0
1.053377234E1,-9.355978966E-1,-1.792979240E-1,2.446561813E0
1.054176916E1,-9.640297890E-1,-7.274007797E-2,2.038298130E0
1.054976360E1,-8.625788689E-1,2.111830711E-1,1.450804234E0
1.055775966E1,-4.141216278E-1,5.289497375E-1,8.555722237E-1
1.056575279E1,5.770936012E-1,9.770321846E-1,-5.016379356E-1
1.057377984E1,-2.414741516E-1,1.201191902E0,-3.202619553E-1
1.058177682E1,-1.218829155E0,1.318444729E0,-1.639280319E-1
1.058977249E1,-9.134988785E-1,1.111900330E0,-2.423539162E-1
1.059776778E1,-8.479170799E-1,4.514784813E-1,1.569638729E0
1.060576445E1,-1.650992393E0,-2.990660667E-1,2.730817795E0
1.061375881E1,-1.701365948E0,-6.097617149E-1,2.232457161E0
1.062175448E1,-1.296565056E0,-1.049357414E0,1.402736187E0
1.062977938E1,-4.918894768E-1,-1.257507801E0,7.799401283E-1
1.063777628E1,7.990655899E-1,-1.733402252E0,1.115156651E0
1.064577287E1,3.044510841E0,-1.648447990E0,1.662883282E0
1.065376670E1,4.186331272E0,-2.002917051E0,3.717275620E0
1.066176460E1,2.893889427E0,-1.384843946E0,3.666667938E0
1.066975750E1,3.650974751E0,-6.748754978E-1,4.048021793E0
1.067778478E1,6.205300331E0,-1.456752539E0,5.083255291E0
1.068577892E1,6.544314861E0,-1.478409171E0,4.714257240E0
1.069377397E1,6.766244888E0,-6.556539536E-1,3.942175388E0
1.070177157E1,7.908474445E0,-3.798921108E-1,2.666900635E0
1.070976723E1,7.733518600E0,-3.650701046E-1,2.207849026E0
1.071776129E1,6.153412819E0,-2.723166943E-1,1.581902981E0
1.072575696E1,5.079313755E0,-4.713120461E-1,1.468751431E0
1.073378401E1,4.879891396E0,-4.346592426E-1,8.322091103E-1
1.074177845E1,3.845819473E0,-5.610458851E-1,-4.226760864E-1
1.074977535E1,2.650547504E0,-7.818951607E-1,-1.150676727E0
1.075777141E1,1.972863197E0,-7.121047974E-1,-2.166803360E0
1.076579569E1,1.511042595E0,-3.074760437E-1,-2.152136803E0
1.077376183E1,2.115657330E0,1.823987961E-1,-1.728117943E0
1.078175711E1,3.437256336E0,5.322651863E-1,-1.887754440E0
1.078975340E1,4.025519848E0,5.362491608E-1,-2.106846809E0
1.079778053E1,4.041379452E0,5.154559612E-1,-1.899341583E0
1.080577312E1,4.071640968E0,3.618695736E-1,-1.645945072E0
1.081377056E1,4.139920235E0,1.606876850E-1,-1.376369953E0
1.082176477E1,3.832055092E0,5.975198746E-2,-1.149441242E0
1.082976044E1,3.192306042E0,3.712368011E-2,-6.809611320E-1
1.083775696E1,2.437582493E0,8.244943619E-2,-3.756628036E-1
1.084575293E1,1.710930347E0,1.273252964E-1,-3.096995354E-1
1.085377783E1,1.500577927E0,-3.964090347E-2,-2.951130867E-1
1.086177512E1,1.352132797E0,-3.001432419E-1,-6.437349319E-2
1.086976887E1,1.129102707E0,-5.156102180E-1,2.011051178E-1
1.087776708E1,9.966340065E-1,-6.131196022E-1,7.893953323E-1
1.088576059E1,6.023468971E-1,-6.389725208E-1,1.154078960E0
1.089375680E1,-1.420826912E-1,-8.071045876E-1,1.273588657E0
1.090178301E1,1.587648392E-1,-4.024281502E-1,8.327784538E-1
1.090977799E1,-1.446104050E-2,-1.985673904E-1,2.630891800E-1
1.091777366E1,1.804356575E-1,-3.619470596E-1,2.851800919E-1
1.092576910E1,4.636511803E-1,-5.489010811E-1,3.197264671E-1
1.093376323E1,2.805685997E-1,-4.969630241E-1,1.217331886E-1
1.094175974E1,-4.474735260E-2,-4.822878838E-1,-4.867234230E-1
1.094975764E1,-5.340962410E-1,-5.883321762E-1,-1.118880749E0
1.095775201E1,-1.558871508E0,-7.835025787E-1,-1.014168739E0
1.096577822E1,-2.130801201E0,-8.454318047E-1,-4.753646851E-1
1.097377265E1,-2.194281578E0,-9.803843498E-1,-1.352090836E-1
1.098176925E1,-1.541091204E0,-9.137463570E-1,-7.382044792E-1
1.098976638E1,-1.397584677E0,-7.067070007E-1,-1.587915897E0
1.099775990E1,-1.374821424E0,-6.237750053E-1,-1.384262562E0
1.100575503E1,-1.343512297E0,-6.878957748E-1,-1.125944614E0
1.101378024E1,-1.062107086E0,-7.374572754E-1,-1.648759365E0
1.102177860E1,-2.391114235E-1,-5.796060562E-1,-1.992485762E0
1.102977311E1,-1.431031227E-1,-6.431508064E-1,-1.957924604E0
1.103776909E1,-1.874704361E-1,-8.010277748E-1,-8.194866180E-1
1.104576538E1,-4.969844818E-1,-1.109443665E0,2.511820793E-1
1.105375951E1,-3.102293015E-1,-1.395233154E0,1.023709297E0
1.106175572E1,4.274678230E-1,-1.484723091E0,7.929854393E-1
1.106978162E1,1.041145325E-1,-1.231643200E0,9.740114212E-2
1.107777698E1,-8.914537430E-1,-6.496372223E-1,-6.283750534E-1
1.108577265E1,-1.595509768E0,-5.104494095E-2,-1.367811441E0
1.109376978E1,-2.131360054E0,5.393733978E-1,-1.850126982E0
1.110176461E1,-1.827537060E0,6.040706635E-1,-2.358045578E0
1.110976089E1,-1.214536667E0,3.540849686E-1,-2.833280563E0
1.111775410E1,-1.014242887E0,5.359783173E-1,-2.753176689E0
1.112578116E1,-2.470030785E-1,1.903963089E-1,-2.504398584E0
1.113377498E1,-2.839694023E-1,7.935762405E-2,-1.710509300E0
1.114177250E1,-7.441837788E-1,6.871786118E-1,-1.939033508E0
1.114976663E1,9.180212021E-2,7.970499992E-1,-1.822691441E0
1.115776222E1,3.342881203E-1,8.853440285E-1,-1.834632397E0
1.116575920E1,1.402900696E0,5.171089172E-1,-2.267590523E0
1.117375364E1,1.703492641E0,1.601767540E-1,-2.224022388E0
1.118175208E1,1.625664234E0,2.232508659E-1,-6.844336987E-1
1.118977505E1,1.428129196E0,3.648295403E-1,4.577808380E-1
1.119777134E1,1.527261257E0,3.175659180E-1,9.657783508E-1
1.120576732E1,1.546546459E0,4.901342392E-1,1.489924431E0
1.121376176E1,1.021401405E0,4.858026505E-1,1.545182705E0
1.122175866E1,5.286760330E-1,7.140622139E-1,1.645942688E0
1.122975433E1,3.790373802E-1,6.241054535E-1,1.082378387E0
1.123778054E1,5.000495911E-2,1.063126564E0,8.497095108E-1
1.124577459E1,6.307125092E-1,1.203744888E0,1.557330608E0
1.125377280E1,1.218951464E0,1.072937965E0,2.006613255E0
1.126176539E1,1.708862782E0,7.489700317E-1,1.409661770E0
1.126976406E1,1.613872528E0,5.612916946E-1,9.661650658E-1
1.127775796E1,1.004015684E0,5.214548111E-1,9.106590748E-1
1.128575486E1,1.057868242E0,3.815269470E-2,8.298618793E-1
1.129377884E1,1.359653473E-1,-2.509307861E-1,-7.405734062E-2
1.130177474E1,-1.559057236E-1,1.451835632E-1,-3.240389824E-1
1.130977234E1,-3.708536625E-1,1.114749908E-1,-5.630943775E-1
1.131776670E1,-4.411032200E-1,1.142311096E-1,-1.447112560E-1
1.132576391E1,-8.526225090E-1,1.850128174E-2,-8.214306831E-2
1.133375896E1,-4.114284515E-1,6.594085693E-2,5.379850864E-1
1.134175348E1,3.341929913E-1,-2.172746658E-1,1.479054213E0
1.134977861E1,1.033221006E0,-6.291909218E-1,2.071278811E0
1.135777366E1,1.591937065E0,-9.296193123E-1,2.575135231E0
1.136577218E1,1.861535549E0,-9.187097549E-1,3.723794937E0
1.137376477E1,1.249598026E0,-1.330035210E0,3.338638306E0
1.138176106E1,1.048195362E0,-1.056435585E0,3.684815884E0
1.138975696E1,6.643996239E-1,-1.223806381E0,3.854412556E0
1.139775171E1,4.007134438E-1,-1.356647968E0,3.728391171E0
1.140577915E1,1.637458801E-1,-1.488677979E0,3.192782879E0
1.141377320E1,-7.231221199E-1,-1.101208687E0,2.868588924E0
1.142177072E1,-8.552560806E-1,-1.217770100E0,2.276128769E0
1.142976546E1,-1.056414843E0,-1.054901123E0,5.747728348E-1
1.143776236E1,-1.359565735E0,-9.943718910E-1,-2.729215622E-1
1.144575565E1,-1.395880222E0,-8.076868057E-1,-1.154960632E0
1.145375155E1,-7.645130157E-1,-1.099620342E0,-9.851021767E-1
1.146177861E1,-4.602017403E-1,-1.025858402E0,-1.160851479E0
1.146977274E1,-2.371454239E-2,-8.671526909E-1,-1.622743130E0
1.147777156E1,5.034875870E-1,-7.467503548E-1,-2.234551907E0
1.148576500E1,1.018900394E0,-7.956876755E-1,-2.254364491E0
1.149375952E1,1.156761646E0,-8.548665047E-1,-1.415092468E0
1.150175788E1,1.277725220E0,-7.707562447E-1,-6.396174431E-1
1.150975086E1,1.450096607E0,-8.047471046E-1,-5.386862755E-1
1.151777853E1,1.124796391E0,-9.734511375E-1,-2.976255417E-1
1.152577512E1,7.206220627E-1,-9.298224449E-1,-7.435679436E-1
1.153377110E1,8.061761856E-1,-9.764170647E-1,-2.311234474E-1
1.154176577E1,9.244003296E-1,-9.969816208E-1,2.632751465E-1
1.154976121E1,6.859054565E-1,-9.576821327E-1,1.577415466E-1
1.155775772E1,6.227021217E-1,-8.907027245E-1,2.663135529E-2
1.156575216E1,6.948494911E-1,-8.285794258E-1,-5.208358765E-1
1.157377829E1,4.071969986E-1,-8.681855202E-1,-6.654934883E-1
1.158177243E1,-3.509306908E-1,-8.430075645E-1,-1.226276159E0
1.158976910E1,-7.581510544E-1,-9.330267906E-1,-1.010663509E0
1.159776630E1,-1.667071819E0,-1.085453987E0,-1.465068460E0
1.160576005E1,-1.873744726E0,-7.160019875E-1,-1.208214402E0
1.161375572E1,-2.169355869E0,-6.529989243E-1,-6.885330677E-1
1.162178247E1,-2.085550547E0,-7.071180344E-1,-3.598754406E-1
1.162977822E1,-1.605772734E0,-6.905441284E-1,-5.679056644E-1
1.163774342E1,-1.117701769E0,-5.236878395E-1,-1.216300726E0
1.164530516E1,-7.508935928E-1,-8.822054863E-1,-1.070868611E0
1.165387716E1,-6.977462769E-1,-4.688134193E-1,-8.268740177E-1
1.166187386E1,-1.490659952E0,-3.929786682E-1,-1.190348506E0
1.166986917E1,-1.615267515E0,-1.463284492E-1,-6.564962864E-1
1.167786464E1,-1.547817469E0,-1.637296677E-1,-3.941576481E-1
1.168588957E1,-1.344237804E0,-1.142892838E-1,-4.607360363E-1
1.169388458E1,-2.959375381E-1,-1.268606186E-1,4.810311794E-1
1.170188089E1,3.855257034E-1,-4.528498650E-1,1.145732641E0
1.170987936E1,-2.571034431E-1,-1.834573746E-1,7.890279293E-1
1.171787137E1,1.190004349E-1,5.904960632E-2,5.032014847E-1
1.172586737E1,9.047799110E-1,-2.380886078E-1,5.922067165E-1
1.173386469E1,1.015796661E-1,-5.427055359E-1,-9.571599960E-2
1.174189200E1,-4.496388435E-1,-1.725578308E-2,-2.295207977E-1
1.174988462E1,-6.278786659E-1,-6.457901001E-2,-4.298820496E-1
1.175788217E1,-1.103778839E0,6.235218048E-2,-9.546641111E-1
1.176587694E1,-2.454550266E0,6.530885696E-1,-2.003422499E0
1.177387480E1,-4.524631500E-1,8.935470581E-1,-3.231936693E0
1.178186896E1,-3.294630051E-1,1.604635239E0,-3.269134521E0
1.178986258E1,8.367347717E-2,1.864712715E0,-1.939076662E0
1.179789089E1,1.063024044E0,1.688724518E0,3.446817398E-3
1.180588590E1,2.108630657E0,1.249068260E0,1.988730192E0
1.181388160E1,2.692717552E0,9.539861679E-1,2.929358006E0
1.182187545E1,3.624384403E0,-4.516792297E-2,3.665642023E0
1.182987461E1,3.847255707E0,8.049392700E-2,5.309852600E0
1.183786746E1,2.322857380E0,8.353090286E-1,3.740691662E0
1.184589555E1,1.746260643E0,7.479639053E-1,1.747715235E0
1.185389094E1,2.548352242E0,9.432611465E-1,-2.154272795E-1
1.186188502E1,2.185470104E0,1.452690125E0,-2.122835159E0
1.186988103E1,2.529476643E0,1.235801697E0,-2.980075598E0
1.187787827E1,1.911402702E0,1.324034691E0,-3.554910660E0
1.188587089E1,1.070727825E0,1.711709023E0,-4.359766483E0
1.189386666E1,4.851531982E-1,1.734923363E0,-3.952619553E0
1.190189467E1,-1.801919937E-1,1.783001900E0,-2.985405207E0
1.190989029E1,-5.197973251E-1,1.660480499E0,-2.663404942E0
1.191788414E1,-8.163020611E-1,1.664585114E0,-1.488039613E0
1.192588146E1,-2.863476276E-1,1.974194527E0,1.067531109E0
1.193387716E1,1.869740725E0,1.461155891E0,2.467176199E0
1.194187070E1,3.515258312E0,6.160259247E-2,1.236176252E0
1.194986694E1,4.704955578E0,-7.039022446E-1,3.936338425E-2
1.195786364E1,5.015713215E0,-8.063354492E-1,-5.564713478E-2
1.196588972E1,4.469372749E0,-1.135396004E0,1.812195778E-2
1.197388396E1,3.278470993E0,-9.870591164E-1,-5.743920803E-2
1.198188296E1,7.880034447E-1,-1.818624020E0,3.064736128E-1
1.198987782E1,-1.369726419E0,3.498964310E-1,-3.329316854E0
1.199787282E1,6.537308693E-1,-1.859254837E-1,-4.692036152E0
1.200586760E1,9.117164612E-1,3.991565704E-1,-5.444784641E0
1.201389376E1,2.263296127E0,4.054527283E-1,-4.820214748E0
1.202188915E1,2.168921232E0,-3.048038483E-2,-3.841324806E0
1.202988554E1,7.043709755E-1,1.937541962E-1,-3.408923149E0
1.203788093E1,-1.351571083E-2,2.244777679E-1,-2.894054413E0
1.204587779E1,2.576444149E-1,-7.329463959E-2,-1.915971041E0
1.205387172E1,5.809094906E-1,-1.032363892E0,-1.249064207E0
1.206186857E1,2.401174068E0,-1.101700306E0,-1.106459618E0
1.206989350E1,3.495144367E0,-1.260441780E0,5.779162645E-1
1.207788981E1,4.393037796E0,-2.465003014E0,2.669798374E0
1.208588559E1,5.983934879E0,-2.613121033E0,2.187007904E0
1.209388221E1,5.502561569E0,-2.912924290E0,1.228715181E0
1.210187506E1,8.964366913E-1,-2.841377258E0,2.390226364E0
1.210987261E1,-3.188820601E0,-2.275604248E0,2.925533772E0
1.211786769E1,-4.485376358E0,-2.319744110E0,1.501296520E0
1.212589416E1,-4.674339771E0,-1.844140530E0,1.064571619E0
1.213389078E1,-4.888252258E0,-2.210550785E0,-3.641343415E-1
1.214188648E1,-4.275658607E0,-2.505724907E0,-1.402196169E0
1.214987941E1,-3.323843002E0,-2.566654205E0,-1.302832603E0
1.215787611E1,-2.332666874E0,-2.522202015E0,-7.900123596E-1
1.216587273E1,-1.578261495E0,-2.209134579E0,-1.582649708E0
1.217386750E1,-5.386579037E-1,-1.894131660E0,-2.394341469E0
1.218189359E1,-1.252304554E0,-7.031269073E-1,-1.599302769E0
1.218988806E1,-8.539397717E-1,-8.789520264E-1,-2.055643082E0
1.219788498E1,-7.013890743E-1,-6.478986740E-1,-1.028658032E0
1.220597145E1,-1.484649181E-1,-1.730590820E0,2.036006451E-1
1.221387492E1,-2.767112255E-1,-1.077560425E0,2.027123928E0
1.222187093E1,-1.576234102E0,-1.104984283E0,2.250719547E0
1.222986786E1,-4.748528004E-1,-3.525257111E-1,1.072407722E0
1.223789309E1,-9.748613834E-1,6.141567230E-1,6.453220844E-1
1.224588810E1,-6.098015308E-1,9.229888916E-1,-8.472586274E-1
1.225388326E1,5.996930599E-1,7.648715973E-1,-2.039393425E0
1.226187981E1,1.177061796E0,1.211433411E-1,-2.255959988E0
1.226987589E1,7.765667439E-1,-7.089395523E-1,-1.861591816E0
1.227787097E1,3.859515190E-1,1.588048935E-1,9.251877069E-1
1.228586536E1,8.419883251E-1,8.540458679E-1,1.827413797E0
1.229389160E1,1.431812286E0,1.106272697E0,1.461539745E0
1.230188692E1,1.234905243E0,9.153461456E-2,3.871627450E-1
1.230988454E1,1.017100811E-1,-6.662387848E-1,-1.279474020E0
1.231787954E1,-1.597838283E0,-8.144378662E-4,-9.717898965E-1
1.232587463E1,-3.375096321E0,1.386033058E0,-1.970727295E-1
1.233387248E1,-3.934026003E0,1.562778473E0,-1.254249662E-1
1.234186764E1,-2.199480057E0,5.277471542E-1,-1.730166197E0
1.234989218E1,-1.749080896E0,4.422006607E-1,-2.254906654E0
1.235788827E1,-1.491580009E0,8.442811966E-1,-1.474008203E0
1.236588366E1,-1.209984541E0,1.403496742E0,-8.239105344E-1
1.237388120E1,-7.647885084E-1,1.359923363E0,-9.399445653E-1
1.238187444E1,2.491502762E-1,6.613435745E-1,-1.368290901E0
1.238987106E1,1.958467007E0,5.690402985E-1,-1.500646591E0
1.239786615E1,2.417981625E0,8.625640869E-1,-9.882932305E-1
1.240589131E1,2.159812689E0,8.825101852E-1,-9.923866391E-1
1.241388916E1,5.528662205E-1,1.457929611E0,-8.039216399E-1
1.242188432E1,-7.439873219E-1,1.996516228E0,-8.468723297E-1
1.242987994E1,-1.506749868E0,2.076790810E0,-2.089239597E0
1.243787479E1,-2.801280975E0,2.488145828E0,-1.910535455E0
1.244587072E1,-2.038686752E0,3.030311584E0,-9.846453071E-1
1.245386619E1,-5.362143517E-1,3.132548332E0,9.271861613E-2
1.246189228E1,1.052691936E-1,3.090106010E0,-1.347077489E-1
1.246988682E1,7.213410139E-1,2.502276421E0,-7.206804156E-1
1.247788252E1,8.887969255E-1,2.224479675E0,-3.949848562E-2
1.248587783E1,1.232814789E-2,2.115736008E0,-3.487549722E-2
1.249387361E1,-1.141393185E-1,1.718616486E0,-3.009790778E-1
1.250186931E1,9.302425385E-2,1.337613106E0,-3.696405292E-1
1.250986470E1,4.987548590E-1,1.315413475E0,-2.630979717E-1
1.251789386E1,1.508053064E0,1.382057190E0,7.659095526E-1
1.252588748E1,2.310353279E0,1.246929169E0,2.114763975E0
1.253388379E1,2.571166515E0,1.494072914E0,3.948615789E0
1.254187888E1,3.339574575E0,1.514482498E0,4.159521580E0
1.254987488E1,4.040840149E0,1.575060844E0,4.052530766E0
1.255787051E1,4.384413719E0,1.555308342E0,2.587007523E0
1.256586413E1,4.254320145E0,1.372545242E0,2.852209091E0
1.257389152E1,3.065143824E0,1.391400337E0,2.146575928E0
1.258188776E1,1.676793098E0,5.811548233E-1,9.850444794E-1
1.258988192E1,1.024492741E0,3.964872360E-1,1.751335621E0
1.259787885E1,3.928184509E-3,-2.082653046E-1,3.232339859E0
1.260587516E1,2.180993557E-1,-5.441045761E-1,4.105391979E0
1.261386940E1,2.003829479E-1,-8.941164017E-1,5.558079243E0
1.262189610E1,1.166575432E0,-7.949800491E-1,5.947505474E0
1.262989218E1,1.920158386E0,-9.135475159E-1,8.237079620E0
1.263788749E1,2.372593641E0,-9.592065811E-1,8.151499748E0
1.264588419E1,2.744817495E0,-1.509194374E0,7.131337643E0
1.265387766E1,2.684198380E0,-2.023460388E0,5.608916283E0
1.266187436E1,2.052342653E0,-2.694466591E0,3.750813484E0
1.266987129E1,1.491746187E0,-2.895004749E0,1.488219023E0
1.267789645E1,1.139899492E0,-2.812949181E0,-9.553384781E-1
1.268589038E1,1.345661402E0,-2.818015099E0,-2.723786354E0
1.269388692E1,1.814406157E0,-3.307193756E0,-5.472388744E0
1.270188416E1,9.387681484E-1,-2.795914650E0,-7.211627960E0
1.270987901E1,2.436923981E-2,-2.630573273E0,-9.696836472E0
1.271787471E1,-9.928466678E-1,-2.133267879E0,-9.117255211E0
1.272587010E1,-2.008763313E0,-1.878050327E0,-8.081959724E0
1.273386580E1,-1.932388186E0,-1.517501831E0,-5.959799767E0
1.274189219E1,-1.197074652E0,-1.605012894E0,-4.279318810E0
1.274988858E1,-1.327856898E0,-1.672650814E0,-3.179081440E0
1.275788244E1,-1.318405509E0,-1.342867851E0,-1.600232124E0
1.276587721E1,-1.335394025E0,-9.025316238E-1,1.908251166E0
1.277387230E1,-1.717637777E0,1.540269852E-1,4.063353539E0
1.278186861E1,-1.461363554E0,9.063386917E-1,5.399436951E0
1.278989692E1,-1.381980658E0,8.482637405E-1,5.656575203E0
1.279789008E1,-1.879354477E0,1.830329895E-1,3.411826611E0
1.280588609E1,-2.149659395E0,-1.937942505E-1,8.397908211E-1
1.281388340E1,-2.081015110E0,-4.691247940E-1,-1.758878231E-1
1.282187880E1,-1.449081421E0,-1.934021473E0,-6.585457325E-1
1.282987442E1,-1.105772257E0,-3.050601959E0,-1.260631323E0
1.283786866E1,-1.771744251E0,-3.177838802E0,-9.538462162E-1
1.284589543E1,-2.304660559E0,-2.378436565E0,-5.778946877E-1
1.285389113E1,-2.417650700E0,-1.729400158E0,5.928921700E-2
1.286188683E1,-2.431912422E0,-1.330953598E0,1.024694920E0
1.286988099E1,-1.970262885E0,-1.014590263E0,1.811559677E0
1.287787969E1,-1.329663754E0,-1.170156479E0,1.990302920E0
1.288587354E1,-4.064978957E-1,-1.337973595E0,2.169965029E0
1.289386962E1,-5.328452587E-2,-1.014110565E0,2.165097713E0
1.290189724E1,-9.619736671E-2,-3.543090820E-1,2.129778147E0
1.290988902E1,-3.154796362E-1,-2.057027817E-1,1.808794737E0
1.291788472E1,-7.658134103E-1,-9.443664551E-2,1.078780890E0
1.292588073E1,-1.276316404E0,-4.742240906E-2,4.084937572E-1
1.293387758E1,-1.831587315E0,2.527141571E-2,-4.477326870E-1
1.294187235E1,-2.304054260E0,4.138660431E-2,-1.012754917E0
1.294986867E1,-2.637178659E0,-6.476593018E-2,-1.364771128E0
1.295789360E1,-2.432896137E0,-2.090530396E-1,-1.765170097E0
1.296589176E1,-1.608954191E0,-3.938398361E-1,-2.219534636E0
1.297388507E1,1.074463129E-2,-1.844291687E-1,-2.729874849E0
1.298188077E1,1.892190456E0,1.911096573E-1,-3.648124933E0
1.298987670E1,2.678570271E0,3.968172073E-1,-3.727654934E0
1.299787148E1,2.257717609E0,5.066804886E-1,-3.153943300E0
1.300586902E1,2.061424255E0,3.925495148E-1,-2.194981575E0
1.301389395E1,2.715561390E0,4.440040588E-1,-1.002649784E0
1.302188850E1,3.145924568E0,1.110228539E0,1.163740158E-1
1.302988658E1,2.581603527E0,1.803970337E0,7.881249189E-1
1.303788143E1,2.129993200E0,1.939415932E0,9.738088846E-1
1.304587705E1,1.319259048E0,1.694436073E0,8.501110077E-1
1.305387222E1,2.267511487E-1,1.343461037E0,3.572815657E-1
1.306187007E1,-8.035547733E-1,1.177888870E0,-3.086495399E-2
1.306989584E1,-1.399026275E0,1.243084908E0,5.897283554E-3
1.307788916E1,-1.845623493E0,1.259665489E0,4.176244736E-1
1.308588601E1,-2.356447697E0,1.223510742E0,5.681020021E-1
1.309388202E1,-3.050398588E0,1.575858116E0,3.365670443E-1
1.310187687E1,-3.696893692E0,1.571879387E0,-8.688216209E-1
1.310987318E1,-3.727615833E0,1.271091461E0,-2.327310085E0
1.311786850E1,-3.141083241E0,5.985393524E-1,-3.531193495E0
1.312589250E1,-2.549646139E0,-6.702041626E-2,-4.525927544E0
1.313389136E1,-1.637086868E0,-2.448835373E-1,-4.695791721E0
1.314188736E1,-3.426448405E-1,-1.128730774E-1,-5.406902313E0
1.314988152E1,-1.557924747E-1,2.679615021E-1,-6.291202545E0
1.315787599E1,-3.542124033E-1,7.493486404E-1,-6.832174301E0
1.316587254E1,-5.032002926E-1,4.089431763E-1,-6.382522583E0
1.317386762E1,3.870686293E-1,-1.292772293E-1,-5.662487030E0
1.318186247E1,1.865876675E0,-9.316625595E-1,-5.082190514E0
1.318988917E1,2.055414677E0,-1.644924641E0,-4.297245502E0
1.319788672E1,2.238680840E0,-1.762538910E0,-3.308350325E0
1.320588064E1,2.868434906E0,-1.901143551E0,-2.169994354E0
1.321387811E1,3.471807003E0,-1.893039227E0,-1.398265123E0
1.322187235E1,2.881739140E0,-1.242815971E0,1.394798756E-1
1.322986674E1,2.348122597E0,-1.067937851E0,1.051153898E0
1.323789290E1,-1.268414259E-1,-5.498151779E-1,1.453892350E0
1.324588952E1,-1.792328596E0,1.424646378E-1,1.369023323E0
1.325388530E1,-2.974629641E0,8.655958176E-1,1.594719529E0
1.326187969E1,-2.527243137E0,1.196117401E0,2.098397970E0
1.326987723E1,-6.674094200E-1,7.612304688E-1,2.283783197E0
1.327787086E1,2.238317728E-1,4.171733856E-1,1.754193425E0
1.328586771E1,-1.811514497E-1,-7.227020264E-1,6.300701499E-1
1.329389548E1,-8.325165510E-1,-4.282207489E-1,4.463952780E-1
1.330188841E1,-9.757112861E-1,-5.497503281E-1,5.601643324E-1
1.330988534E1,-1.160576344E0,-9.267463684E-1,3.420604467E-1
1.331788166E1,-8.200926781E-1,-1.346183777E0,-2.642869949E-1
1.332587797E1,-2.623034120E-1,-1.566965103E0,-4.450539351E-1
1.333387213E1,-2.765290737E-1,-2.430476665E0,-2.145271301E-1
1.334186652E1,6.362184286E-1,-2.148366928E0,-7.091784477E-2
1.334989238E1,1.698244929E0,-1.499765396E0,-5.418763161E-1
1.335788815E1,1.698093057E0,-1.136726379E0,-1.371224642E0
1.336588531E1,4.472911358E-1,-1.116199493E0,-1.421497583E0
1.337388070E1,-7.297963500E-1,-1.114802361E0,-1.007074118E0
1.338187586E1,-1.029936790E0,-7.258148193E-1,-3.839437962E-1
1.338986964E1,-7.069560885E-1,-7.896137238E-2,-1.689947844E-1
1.339786565E1,-5.896027684E-1,4.268827438E-1,-3.682628870E-1
1.340589519E1,-1.057190657E0,3.021507263E-1,-9.071248770E-1
1.341388904E1,-7.238050699E-1,-1.944656372E-1,-1.182659030E0
1.342188451E1,6.854778528E-2,-5.183887482E-1,-8.043729067E-1
1.342987921E1,7.133355141E-1,-8.772983551E-1,-8.812725544E-2
1.343787583E1,1.062526226E0,-9.108219147E-1,3.432178497E-1
1.344587161E1,1.098808765E0,-6.352672577E-1,1.054504395E0
1.345386608E1,9.745160341E-1,-6.103115082E-1,1.784451842E0
1.346189347E1,2.821134329E-1,-7.329969406E-1,2.310239315E0
1.346988693E1,-4.478639066E-1,-6.967191696E-1,2.497538090E0
1.347788325E1,-1.378094196E0,-3.410310745E-1,2.413140059E0
1.348587810E1,-1.557192326E0,-3.365840912E-1,2.332009792E0
1.349387380E1,-1.443462849E0,-5.926513672E-1,2.156204224E0
1.350187135E1,-1.539913177E0,-7.671298981E-1,2.104877472E0
1.350986643E1,-1.320404768E0,-9.320363998E-1,2.209312916E0
1.351789228E1,-1.219453692E0,-1.070840836E0,2.167750359E0
1.352588767E1,-1.399554610E0,-1.073813438E0,2.628170729E0
1.353388552E1,-1.787097454E0,-9.889650345E-1,2.802542925E0
1.354187938E1,-2.317080975E0,-7.320823669E-1,2.202754974E0
1.354987538E1,-2.544804335E0,-3.217439651E-1,1.466561317E0
1.355786978E1,-2.195620298E0,-1.737442017E-1,1.052685857E0
1.356586855E1,-1.964898705E0,7.793521881E-2,1.467072725E0
1.357389317E1,-1.120064735E0,-1.303319931E-1,1.678378105E0
1.358188702E1,-5.110328197E-1,-3.377332687E-1,1.662619233E0
1.358988403E1,2.214547396E-1,-5.408763885E-1,9.517471790E-1
1.359787842E1,5.897538662E-1,-5.169744492E-1,-1.516295671E-1
1.360587420E1,1.200085044E0,-2.469234467E-1,-1.615560770E0
1.361387074E1,9.844912291E-1,5.122947693E-2,-3.199749470E0
1.362186644E1,7.980225086E-1,4.529771805E-1,-4.249423981E0
1.362989145E1,1.950564504E0,8.590898514E-1,-4.105422974E0
1.363788892E1,3.443104267E0,1.501196861E0,-2.272794008E0
1.364588369E1,2.567467213E0,2.396485329E0,7.783949375E-1
1.365387847E1,7.602479458E-1,2.678117752E0,3.578906059E0
1.366187386E1,-2.627102137E-1,1.996183395E0,3.867976189E0
1.366987086E1,-5.761982203E-1,1.729026794E0,3.756001711E0
1.367789695E1,-2.741347551E-1,1.860236168E0,3.709773064E0
1.368589119E1,-3.666493893E-1,1.894433022E0,3.228509665E0
1.369388742E1,-1.308307767E0,1.854210854E0,2.075166225E0
1.370188189E1,-1.894215703E0,1.003865242E0,4.276614189E-1
1.370987974E1,-1.097308993E0,2.058849335E-1,-1.390450001E-1
1.371787298E1,-9.130150676E-1,5.922279358E-1,-3.392851353E-1
1.372587022E1,-6.609849930E-1,1.215021133E0,-4.886164665E-1
1.373386499E1,2.985620499E-1,1.401426315E0,-3.870916367E-1
1.374189208E1,1.065801859E0,1.364855766E0,-4.852395058E-1
1.374988624E1,2.036850452E0,1.372524261E0,-5.680611134E-1
1.375788294E1,2.885785341E0,1.412128448E0,-8.531429768E-1
1.376587710E1,4.141956806E0,9.605598450E-1,-7.730197906E-1
1.377387495E1,4.763923168E0,7.337493896E-1,-5.432355404E-1
1.378187188E1,4.641049385E0,5.218992233E-1,-1.068921089E-1
1.378986473E1,4.151197433E0,4.882192612E-1,3.133931160E-1
1.379789212E1,3.482402325E0,4.746303558E-1,6.567463875E-1
1.380588667E1,3.048459768E0,3.690423965E-1,8.912944794E-1
1.381388352E1,2.355184078E0,1.335020065E-1,6.899733543E-1
1.382187737E1,1.868857384E0,-1.789608002E-1,2.332596779E-1
1.382987307E1,1.271406054E0,-4.051465988E-1,-2.983951569E-2
1.383787185E1,7.080152035E-1,-3.121833801E-1,-4.419612885E-2
1.384589647E1,4.060978889E-1,-2.067136765E-1,-6.062030792E-3
1.385389248E1,6.283792257E-1,-4.039258957E-1,1.045589447E-1
1.386188794E1,4.755369425E-1,-2.056961060E-1,3.276238441E-1
1.386988356E1,-1.066459417E-1,1.563405991E-1,3.404726982E-1
1.387787649E1,-5.683946609E-2,2.981939316E-1,8.376646042E-2
1.388587404E1,-2.665023804E-1,6.287078857E-1,-3.800091743E-1
1.389386982E1,-2.731900215E-1,1.044428825E0,-1.094383240E0
1.390189651E1,2.367923260E-1,9.865884781E-1,-1.723785400E0
1.390989283E1,5.684258938E-1,4.214401245E-1,-2.208085060E0
1.391788676E1,1.002638698E0,-7.164478302E-2,-2.071213722E0
1.392588300E1,1.163499117E0,-4.290337563E-1,-1.746473074E0
1.393387723E1,9.430292845E-1,-4.787168503E-1,-1.466517210E0
1.394187624E1,5.499892235E-1,-6.042609215E-1,-1.278469324E0
1.394987009E1,1.535320282E-1,-8.415613174E-1,-1.029877186E0
1.395786433E1,-4.142904282E-1,-1.110066891E0,-5.169043541E-1
1.396589295E1,-8.327124715E-1,-1.224618435E0,2.239751816E-2
1.397388642E1,-1.308788538E0,-1.145722866E0,5.624852180E-1
1.398188066E1,-1.527270555E0,-1.102147102E0,7.325468063E-1
1.398987820E1,-1.847031951E0,-1.105382442E0,1.014871120E0
1.399787444E1,-1.228328347E0,-1.428545475E0,7.508406639E-1
1.400586860E1,-1.224684477E0,-1.373674870E0,-4.162740707E-2
1.401386468E1,-1.256442070E0,-1.279313564E0,-6.367177963E-1
1.402188992E1,-8.824990392E-1,-1.345512390E0,-1.021972179E0
1.402988531E1,-5.329078436E-1,-1.444548607E0,-1.165455580E0
1.403788308E1,-3.719630837E-1,-1.511448383E0,-1.331281424E0
1.404587948E1,-4.277487397E-1,-1.476301193E0,-1.048368454E0
1.405387302E1,-3.091468811E-1,-1.538288116E0,-7.187075615E-1
1.406186780E1,-8.197712898E-2,-1.546024323E0,-6.284036636E-1
1.406989634E1,2.857047319E-2,-1.473216534E0,-5.934586525E-1
1.407788966E1,-6.278800964E-2,-1.489242554E0,-6.486768723E-1
1.408588751E1,-1.407736540E-2,-1.397904396E0,-8.804426193E-1
1.409388136E1,-2.111935616E-1,-1.133530617E0,-1.018045664E0
1.410187798E1,-2.003547549E-1,-1.083408833E0,-7.965745926E-1
1.410987368E1,-2.130072713E-1,-1.072292328E0,-2.193684578E-1
1.411786846E1,-4.794405103E-1,-7.675781250E-1,6.205759048E-1
1.412595585E1,-6.292182207E-1,-4.758701324E-1,1.067514896E0
1.413389055E1,-5.723260045E-1,-1.485872269E-1,1.098242283E0
1.414188594E1,-3.061580360E-1,2.447919846E-1,5.389890671E-1
1.414988356E1,4.546654820E-1,6.365222931E-1,9.775972366E-2
1.415787826E1,5.662371516E-1,6.774234772E-1,2.858147621E-1
1.416587334E1,5.604219437E-1,8.544979095E-1,1.602959633E-1
1.417387058E1,9.744930267E-1,9.852848053E-1,9.239721298E-2
1.418186597E1,1.191360116E0,1.164299011E0,-2.164192200E-1
1.418989090E1,7.386163473E-1,1.374230385E0,-3.695631027E-1
1.419788506E1,9.259558916E-1,1.490686417E0,-2.231636047E-1
1.420588176E1,1.295015335E0,1.413913727E0,4.147930145E-1
1.421387707E1,1.223856807E0,1.293552399E0,1.754108906E0
1.422187185E1,7.949020863E-1,1.259062767E0,2.764051914E0
1.422986878E1,3.554204702E-1,1.238858223E0,3.685308933E0
1.423789402E1,3.041037619E-1,7.994976044E-1,3.931386948E0
1.424588825E1,1.039276123E-1,5.979051590E-1,4.441993237E0
1.425388449E1,-5.344324708E-1,1.916561127E-1,4.451848030E0
1.426188357E1,-1.487326026E0,6.570615768E-1,3.896141291E0
1.426987596E1,-2.388792515E0,1.783901215E0,2.511751175E0
1.427787105E1,-3.430193663E0,2.755898476E0,-6.314222813E-1
1.428586859E1,-2.846473217E0,3.924172401E0,-4.146402359E0
1.429389406E1,-3.137761354E0,4.393323898E0,-7.076508522E0
1.430189161E1,-3.552004099E0,4.082499504E0,-8.407978058E0
1.430988454E1,-3.491338730E0,3.357881546E0,-8.453576088E0
1.431788177E1,-3.273718596E0,3.259618759E0,-5.759553909E0
1.432587870E1,-2.231552124E0,3.741069794E0,-2.201928616E0
1.433387294E1,-1.301083088E0,3.803119659E0,-6.834516525E-1
1.434186864E1,-5.574491024E-1,3.620283127E0,-1.033845544E0
1.434989472E1,1.035132706E-1,3.237117767E0,-1.945567608E0
1.435788950E1,5.830353498E-1,2.383213043E0,-2.715928793E0
1.436588550E1,1.117492199E0,1.696646690E0,-2.748203754E0
1.437388128E1,1.753373384E0,1.147771835E0,-1.778159499E0
1.438187698E1,2.051316261E0,8.896150589E-1,-6.399703026E-1
1.438987422E1,1.772699594E0,9.624290466E-1,3.853023052E-1
1.439786707E1,9.247618914E-1,1.184267044E0,4.523298740E-1
1.440589238E1,3.564632237E-1,1.098458290E0,-4.892864227E-1
1.441388808E1,5.077289343E-1,6.148805618E-1,-1.118258119E0
1.442188409E1,8.735720515E-1,-1.492824554E-1,-1.544516563E0
1.442988248E1,5.911332369E-1,-3.735466003E-1,-1.428382754E0
1.443787579E1,3.696680963E-1,-4.531698227E-1,-1.097495914E0
1.444587272E1,2.282097787E-1,-5.483970642E-1,-8.590519428E-1
1.445386658E1,6.949812174E-2,-6.792135239E-1,-6.505575180E-1
1.446189427E1,-1.340898275E-1,-6.879940033E-1,-5.547018051E-1
1.446988936E1,-4.502867162E-1,-7.715969086E-1,-5.363562107E-1
1.447788344E1,-6.143559217E-1,-9.180107117E-1,-4.616520405E-1
1.448587975E1,-7.780703306E-1,-9.907751083E-1,-2.922668457E-1
1.449387584E1,-8.185326457E-1,-1.143513680E0,-1.899058819E-1
1.450187369E1,-6.204971075E-1,-1.459574223E0,-2.562427521E-1
1.450986685E1,-2.989358306E-1,-1.732413292E0,-4.090957642E-1
1.451789424E1,-1.384286210E-2,-1.889732361E0,-4.267506599E-1
1.452588779E1,2.361902446E-1,-2.020264626E0,-2.364799976E-1
1.453388533E1,7.104595900E-1,-2.133772373E0,1.029119492E-1
1.454187864E1,7.516354322E-1,-2.221061230E0,4.252707958E-1
1.454987673E1,6.239634752E-1,-2.334805012E0,8.047230244E-1
1.455787181E1,5.350301862E-1,-2.367497444E0,1.090946198E0
1.456586751E1,5.872681141E-1,-2.517593384E0,1.400319815E0
1.457389344E1,6.792798042E-1,-2.749132633E0,1.610220909E0
1.458189091E1,7.196350098E-1,-2.978160858E0,1.686084270E0
1.458988353E1,8.268771768E-1,-2.975293159E0,1.820355177E0
1.459787954E1,8.369057178E-1,-2.820161819E0,2.275977850E0
1.460587554E1,8.757668734E-1,-2.780682087E0,2.583096981E0
1.461387124E1,8.808781505E-1,-2.924626827E0,2.607284546E0
1.462186571E1,7.926449180E-1,-3.015814304E0,2.279230118E0
1.462989195E1,6.128047109E-1,-2.700652599E0,1.443773508E0
1.463788880E1,5.551519394E-1,-2.216654778E0,5.213246346E-1
1.464588427E1,5.383226275E-1,-1.937450409E0,-4.141798019E-1
1.465388181E1,6.901590228E-1,-2.112624645E0,-1.408959746E0
1.466187620E1,1.629819274E-1,-2.466062069E0,-2.189472914E0
1.466987036E1,6.179736853E-1,-1.962622166E0,-2.297217131E0
1.467786637E1,3.369312882E-1,-1.489170551E0,-1.371199489E0
1.468589168E1,1.264541149E-1,-1.211237907E0,-5.680221319E-1
1.469388892E1,1.011778712E-1,-1.161252975E0,3.221948147E-1
1.470188462E1,-9.605616331E-3,-1.160740852E0,7.579097748E-1
1.470988217E1,-3.095484674E-1,-1.567789555E0,1.548690796E-1
1.471787756E1,-8.777907491E-1,-1.835002422E0,4.694066048E-1
1.472587010E1,-2.083631754E0,-6.822509766E-1,1.275336742E0
1.473389788E1,-2.682229996E0,7.862529755E-1,9.832208157E-1
1.474189265E1,-2.790642023E0,1.729895592E0,-3.202033043E-1
1.474989012E1,-2.348237991E0,2.457344055E0,-1.830255508E0
1.475788313E1,-1.780271292E0,2.551037788E0,-2.880208254E0
1.476588129E1,-1.484019876E0,1.970323563E0,-3.204062700E0
1.477387506E1,-1.687027335E0,2.073243141E0,-2.307539940E0
1.478187299E1,-1.782419801E0,2.384879112E0,-2.408223152E-1
1.478989631E1,-2.160344124E0,2.860630989E0,1.027024269E0
1.479789116E1,-2.581102371E0,3.234974861E0,1.440621138E0
1.480588740E1,-1.500549912E0,3.466480255E0,5.798213482E-1
1.481388440E1,-9.535577297E-1,2.691490173E0,-1.484813571E0
1.482187826E1,-3.633328676E-1,1.790390015E0,-2.348486900E0
1.482987488E1,1.920908689E-1,1.627390862E0,-9.245195389E-1
1.483786896E1,1.114859462E0,1.052171707E0,1.536294699E0
1.484589666E1,1.970907450E0,1.054680824E0,2.281008482E0
1.485389267E1,2.328800678E0,1.620106697E0,2.991178989E0
1.486188806E1,2.007086515E0,2.041150093E0,3.633119822E0
1.486988560E1,1.209877729E0,2.118907928E0,3.432875156E0
1.487788015E1,3.055281639E-1,1.879661560E0,2.798338890E0
1.488587362E1,-1.925531626E-1,1.673252106E0,1.913073778E0
1.489386931E1,-6.315060854E-1,1.711469650E0,1.854939222E0
1.490189678E1,-1.357426763E0,1.442130089E0,2.078928232E0
1.490989279E1,-1.726829290E0,1.210464478E0,1.666449785E0
1.491788810E1,-1.194206953E0,1.369782448E0,2.633130550E-1
1.492588203E1,-3.096884489E-2,1.420847893E0,-7.489111423E-1
1.493387981E1,6.691244841E-1,1.200143814E0,1.872354746E0
1.494187497E1,6.488517523E-1,7.558431625E-1,2.858468533E0
1.494987090E1,1.029549837E0,9.520149231E-2,2.046751976E0
1.495786567E1,3.458780050E-1,-1.583758831E0,1.586631060E0
1.496589283E1,3.408619165E-1,-1.889883041E0,1.036610365E0
1.497388846E1,-1.757905483E0,-1.054418564E0,8.572061062E-1
1.498188477E1,-2.404282331E0,4.032373428E-1,3.567214012E-1
1.498987770E1,-1.338747740E-1,-2.314662933E-2,1.122695923E0
1.499787309E1,1.329816461E0,1.059532166E-3,3.173187494E0
1.500586979E1,1.568555713E0,4.388999939E-2,3.564580202E0
1.501389649E1,1.907883644E0,-2.122440338E-1,3.267338276E0
1.502189157E1,2.238388777E0,-8.394927979E-1,3.277840614E0
1.502988819E1,1.744365454E0,-1.168607712E0,2.938005924E0
1.503788297E1,1.547389746E0,-1.357120514E0,3.006374836E0
1.504587936E1,1.202991605E0,-1.505443573E0,2.629687309E0
1.505387475E1,7.039169073E-1,-1.530573845E0,2.378580093E0
1.506186922E1,1.089247465E-1,-1.284644127E0,2.093647003E0
1.506989569E1,-3.290042877E-1,-6.970701218E-1,1.824861526E0
1.507789192E1,-1.255170107E-1,-4.839076996E-1,1.824298143E0
1.508588678E1,4.169918299E-1,-3.474063873E-1,1.505669475E0
1.509388340E1,9.756356478E-1,-1.537427902E-1,6.952964067E-1
1.510187694E1,1.339257717E0,-3.384017944E-2,-1.644435525E-1
1.510987233E1,1.230356693E0,-3.712654114E-2,-8.219605684E-2
1.511787042E1,1.113794684E0,-4.683637619E-1,9.660276771E-2
1.512589727E1,6.850622892E-1,-1.413764000E0,7.295575142E-1
1.513389320E1,-1.741706133E-1,-2.796164036E0,-2.143073529E-1
1.514188705E1,3.563523293E-3,-3.375534058E0,-7.211591601E-1
1.514988183E1,1.171045780E0,-3.602513790E0,-1.572948456E0
1.515787760E1,1.514877200E0,-3.460093975E0,-2.135948181E0
1.516587300E1,1.370412469E0,-2.670447826E0,-2.905076027E0
1.517387085E1,1.589387536E0,-1.792213440E0,-2.436425209E0
1.518189416E1,1.540781617E0,-1.271114349E0,-1.876465559E0
1.518989294E1,1.231925011E0,-1.216583252E0,-1.456985712E0
1.519788864E1,6.232347488E-1,-5.458030701E-1,-1.835283518E0
1.520588195E1,4.212659597E-1,-8.479156494E-1,-2.755173206E0
1.521387703E1,1.340422630E-1,-1.437626839E0,-2.816606998E0
1.522187235E1,-1.560684443E-1,-1.587823868E0,-2.781778336E0
1.522986966E1,-3.139631748E-1,-2.003069878E0,-2.655413389E0
1.523789575E1,-2.895605564E-2,-2.281735420E0,-2.394272804E0
1.524589237E1,4.448354244E-2,-1.732241154E0,-1.817210197E0
1.525388630E1,2.032788992E-1,-3.790140152E-1,-1.597291470E0
1.526188384E1,3.652060032E-2,-4.037666321E-1,-1.245883942E0
1.526987977E1,-6.194171906E-1,-8.866577148E-1,-1.342779279E0
1.527787370E1,-1.161965489E0,-1.321702957E0,-1.677816629E0
1.528586848E1,-1.643121958E0,-1.794827938E0,-1.775686979E0
1.529389494E1,-1.940750957E0,-2.410604000E0,-1.692097783E0
1.530189026E1,-1.754083037E0,-2.366775036E0,-1.373930931E0
1.530988665E1,-1.164418459E0,-1.857211113E0,-7.364133596E-1
1.531788143E1,-3.513599634E-1,-1.482942581E0,-3.896691799E-1
1.532587620E1,4.374444485E-1,-1.261675835E0,-3.592644334E-1
1.533387244E1,8.838902712E-1,-1.186713219E0,-4.457403421E-1
1.534186791E1,1.379737020E0,-1.332449913E0,-9.098958969E-2
1.534989530E1,1.849322081E0,-1.308576584E0,-7.468582690E-2
1.535789061E1,2.501589537E0,-9.143543243E-1,-2.351853251E-2
1.536588723E1,2.873130083E0,-3.130064011E-1,2.572115660E-1
1.537388108E1,2.816805124E0,2.752780914E-1,1.429682076E-1
1.538187925E1,2.337484837E0,6.213970184E-1,1.331073344E-1
1.538987464E1,1.706336021E0,6.060705185E-1,-2.594155073E-1
1.539786695E1,1.346638799E0,7.277603149E-1,-8.673164248E-2
1.540589496E1,1.039739132E0,7.474946976E-1,1.246209443E-1
1.541388920E1,1.298515081E0,6.871843338E-1,1.885091960E-1
1.542188666E1,6.885519028E-1,8.290290833E-1,3.413760066E-1
1.542988021E1,1.646159887E-1,5.343360901E-1,-2.041325718E-2
1.543787775E1,-6.082057953E-4,4.806375504E-1,-2.515805662E-1
1.544587222E1,8.167263865E-2,7.776613235E-1,7.816664875E-2
1.545386892E1,7.259402275E-1,1.592597961E0,3.708037436E-1
1.546189631E1,1.305389643E0,2.132523537E0,1.873202622E-1
1.546989070E1,1.609854579E0,2.548209190E0,-2.567740381E-1
1.547788463E1,1.667379141E0,2.784680367E0,-6.055386662E-1
1.548588187E1,1.543321609E0,2.686343193E0,-1.021723866E0
1.549387564E1,2.167314291E0,2.344096184E0,-9.921318293E-1
1.550187142E1,2.022612810E0,3.007677078E0,-8.307728171E-1
1.550986743E1,1.454770684E0,2.725712776E0,-9.370286465E-1
1.551789289E1,1.264613986E0,2.403082848E0,-8.227514029E-1
1.552589113E1,1.496755958E0,2.667053223E0,-7.346023321E-1
1.553388560E1,1.742203116E0,2.521659851E0,-6.325803995E-1
1.554188184E1,1.849908113E0,2.201677322E0,-4.784726501E-1
1.554987754E1,1.893055677E0,1.759969711E0,-3.877276778E-1
1.555787416E1,1.875632524E0,1.261357307E0,-2.676905692E-1
1.556590039E1,1.845098019E0,8.591518402E-1,-2.477788925E-2
1.557389609E1,1.863668919E0,2.900571823E-1,2.399624586E-1
1.558189056E1,1.938133478E0,-5.790042877E-2,6.342990398E-1
1.558988464E1,2.042888880E0,-8.412742615E-2,9.256192446E-1
1.559788042E1,2.035407543E0,2.231311798E-2,1.265217543E0
1.560587643E1,1.824227452E0,-1.360969543E-1,1.310178518E0
1.561387243E1,1.410062313E0,-2.314424515E-1,1.396145821E0
1.562186629E1,9.947875738E-1,-2.881307602E-1,1.344319820E0
1.562989422E1,1.040029883E0,-8.789978027E-1,1.047419667E0
1.563789022E1,1.058455706E0,-5.103206635E-1,6.643004417E-1
1.564588569E1,2.444938272E-1,-3.198175430E-1,4.866527319E-1
1.565388908E1,-2.620294690E-2,-8.251390457E-1,2.107208967E-1
1.566187493E1,9.052032232E-1,-6.520185471E-1,2.281994820E-1
1.566987240E1,9.068757892E-1,-3.892230988E-2,3.436855078E-1
1.567786695E1,2.124842405E-1,-1.060791016E-1,3.204557896E-1
1.568589249E1,2.171525061E-1,-2.904891968E-1,3.023277521E-1
1.569388850E1,5.082201958E-1,-3.785104752E-1,3.769253492E-1
1.570188596E1,6.395672560E-1,-1.155157089E-1,4.151769876E-1
1.570988020E1,4.002621770E-1,3.013706207E-2,4.379435778E-1
1.571787521E1,9.796148539E-2,5.104732513E-2,4.345241785E-1
1.572587037E1,-1.937120110E-1,-2.923011780E-2,5.478664637E-1
1.573386722E1,-4.933925867E-1,-5.538759232E-1,5.375618935E-1
1.574189246E1,-8.246575594E-1,-6.780776978E-1,5.232614279E-1
1.574988824E1,-1.033148527E0,-9.338760376E-1,5.147286654E-1
1.575788509E1,-1.106276751E0,-1.041552544E0,5.546550751E-1
1.576588017E1,-8.447589278E-1,-1.377311707E0,6.205266714E-1
1.577387656E1,-3.298740685E-1,-1.402572632E0,6.982829571E-1
1.578187195E1,1.286968142E-1,-1.212821960E0,5.370939970E-1
1.578986765E1,4.957286119E-1,-1.167384148E0,5.204439163E-1
1.579789535E1,6.582260132E-1,-1.019745827E0,5.044329166E-1
1.580589097E1,7.177745104E-1,-1.048242569E0,3.331544399E-1
1.581388521E1,7.626698017E-1,-1.144757271E0,2.556860447E-1
1.582188206E1,7.495614290E-1,-1.245325089E0,3.174331188E-1
1.582987568E1,8.240694404E-1,-1.259217262E0,2.964298725E-1
1.583786954E1,9.706305265E-1,-1.582123280E0,3.075752258E-1
1.584586708E1,1.124136686E0,-1.696388245E0,3.460965157E-1
1.585389478E1,1.221411467E0,-1.575724602E0,4.981400967E-1
1.585789040E1,1.188082933E0,-1.411747932E0,6.748043299E-1
1.586188925E1,1.109074235E0,-1.253730774E0,6.795927286E-1
1.586588887E1,8.600772619E-1,-1.093318939E0,6.748043299E-1
1.586988372E1,5.847439766E-1,-1.021492958E0,6.293143034E-1
1.587388241E1,2.830746472E-1,-9.975509644E-1,5.407289267E-1
1.587787911E1,-3.535419703E-2,-1.033464432E0,3.970769644E-1
1.588187634E1,-3.896960616E-1,-1.191481590E0,1.696277857E-1
1.588587565E1,-5.405308008E-1,-1.239365578E0,-6.260991096E-2
1.589387297E1,-6.636378169E-1,-1.091141701E0,-4.601182938E-1
1.590186774E1,-5.314589739E-1,-8.166780472E-1,-8.253813982E-1
1.590989329E1,-3.181804121E-1,-6.215553284E-1,-1.195299864E0
1.591788737E1,1.461079717E-1,-4.284210205E-1,-1.711541533E0
1.592588499E1,5.721744895E-1,-2.984666824E-1,-2.073905706E0
1.593387946E1,9.575616717E-1,-2.619953156E-1,-2.341252327E0
1.594187601E1,1.151883125E0,-2.879486084E-1,-2.474775314E0
1.594987170E1,1.107430458E0,-3.017768860E-1,-2.498694897E0
1.595789671E1,8.570897579E-1,-3.444967270E-1,-2.505784035E0
1.596589479E1,5.352969170E-1,-3.608980179E-1,-2.319204807E0
1.597388711E1,4.031366110E-1,-1.601238251E-1,-1.985204458E0
1.598188311E1,2.893523574E-1,1.761264801E-1,-1.521868825E0
1.598987889E1,1.969107389E-1,3.479413986E-1,-1.135711432E0
1.599787397E1,2.520738840E-1,4.794359207E-1,-5.857070684E-1
1.600587298E1,3.803708553E-1,4.719476700E-1,7.678484917E-2
1.601389914E1,6.255251765E-1,5.352830887E-1,8.127812147E-1
1.602189453E1,6.953610182E-1,6.140575409E-1,1.224528790E0
1.602989023E1,4.041439295E-1,8.944644928E-1,1.155620456E0
1.603788354E1,-1.604694128E-1,1.317398071E0,7.372616529E-1
1.604588017E1,-6.444789171E-1,1.943587303E0,1.905575991E-1
1.605387463E1,-1.062102556E0,2.455545425E0,-2.748103142E-1
1.606187095E1,-1.503609776E0,2.624757767E0,-6.891811490E-1
1.606986657E1,-1.839028835E0,2.501958847E0,-7.740937471E-1
